#timestamp [ns],w_RS_S_x [rad s^-1],w_RS_S_y [rad s^-1],w_RS_S_z [rad s^-1],a_RS_S_x [m s^-2],a_RS_S_y [m s^-2],a_RS_S_z [m s^-2]1560116808866357565,-0.00704895332456,0.073313370347,-1.75042805495e-05,0.3230458498,-9.72743797302,0.250916153193
1560116808870275259,-0.00704895332456,0.0750586986542,-0.00176283356268,0.283623754978,-9.76716899872,0.272005081177
1560116808874191999,-0.00704895332456,0.0750586986542,-0.000700444941257,0.183637753129,-9.74695491791,0.294032424688
1560116808878108501,-0.00674632118434,0.0750586986542,-1.75042805495e-05,0.163449794054,-9.72697257996,0.294345259666
1560116808882025003,-0.00530362408608,0.0763466254463,-1.75042805495e-05,0.203825712204,-9.76693630219,0.293719619513
1560116808885942698,-0.00355829484761,0.0780206763919,-1.75042805495e-05,0.282009541988,-9.72675609589,0.331548005342
1560116808889858246,-0.00355829484761,0.0752907229129,-1.75042805495e-05,0.301883041859,-9.70696926117,0.311035752296
1560116808893775940,-6.76363852108e-05,0.0723223071792,-1.75042805495e-05,0.321740806103,-9.74659347534,0.350726038218
1560116808897692442,0.00167203987226,0.0750530456617,-1.75042805495e-05,0.241628348827,-9.70659255981,0.352241158485
1560116808901607990,0.00167769286782,0.079528355966,0.00172782491427,0.222729668021,-9.72686386108,0.312946617603
1560116808905524731,0.00145871565347,0.082258996429,-1.75042805495e-05,0.22400842607,-9.80672168732,0.313474297523
1560116808909440279,-0.00127146637618,0.0825815182819,-1.75042805495e-05,0.164566084743,-9.80674934387,0.304840743542
1560116808913357973,-0.00663843399,0.0776594880252,-1.75042805495e-05,0.165043011308,-9.84659862518,0.315072387457
1560116808917273521,-0.0105396118015,0.0750586986542,-1.75042805495e-05,0.204302623868,-9.80678462982,0.303951263428
1560116808921189070,-0.00571045715078,0.0757279492409,-1.75042805495e-05,0.224674090743,-9.74763679504,0.213400572538
1560116808925105810,-0.00190341632686,0.0784589120496,-1.75042805495e-05,0.223059862852,-9.70722198486,0.272943496704
1560116808929023266,-6.76363852108e-05,0.0759086747564,-1.75042805495e-05,0.282496958971,-9.72699832916,0.30164462328
1560116808932938814,-0.000202147882974,0.0750586986542,-0.00189734505259,0.321436882019,-9.66722011566,0.290391564369
1560116808936856508,-0.00181296560913,0.0750586986542,-0.00350816268474,0.420935422182,-9.68719291687,0.298267602921
1560116808940773964,-6.76363852108e-05,0.074697034537,-1.75042805495e-05,0.570094227791,-9.74681568146,0.345166802406
1560116808944690704,-6.76363852108e-05,0.073313370347,0.0026770565103,0.708191990852,-9.76625728607,0.421927958727
1560116808948607206,-6.76363852108e-05,0.0756457978357,0.00521848350763,0.667810797691,-9.74609661102,0.44262111187
1560116808952523947,-6.76363852108e-05,0.0768040344119,0.0067911246763,0.588332474232,-9.76582813263,0.464467555285
1560116808956440449,-0.00343846085007,0.081107438213,0.00696381274611,0.477128297091,-9.68554973602,0.506257116795
1560116808960356951,-0.00530362408608,0.0837853476405,0.0070168226808,0.41622364521,-9.68484973907,0.587333679199
1560116808964273691,-0.00426543842289,0.0817089774221,0.00870914198458,0.435772240162,-9.66490268707,0.586757063866
1560116808968190193,-0.00383646323297,0.0802946910262,0.00724198113147,0.494402199984,-9.66447067261,0.645229578018
1560116808972107887,-0.00530362408608,0.0815590647931,0.00870914198458,0.51425999403,-9.70409393311,0.684919893742
1560116808976023436,-0.00805721172905,0.0860348048809,0.00870914198458,0.315257579088,-9.68395233154,0.689235329628
1560116808979941130,-0.0120298394884,0.0872760042548,0.00870914198458,0.137417986989,-9.68427753448,0.633431196213
1560116808983857632,-0.0140302702785,0.089021332562,0.00870914198458,0.158261120319,-9.68478012085,0.573179721832
1560116808987773180,-0.0174610722542,0.089021332562,0.00870914198458,0.158766955137,-9.61571216583,0.473039984703
1560116808991689920,-0.0175209287554,0.084575293018,0.00870914198458,0.180249452591,-9.65614414215,0.41305232048
1560116808995605469,-0.0175209287554,0.0839798643331,0.0104544712231,0.180728971958,-9.68609142303,0.413250207901
1560116808999520063,-0.016342361695,0.0867092417503,0.00927590479157,0.132672548294,-9.72646045685,0.354819118977
1560116809003435850,-0.0179392294145,0.0868577040421,0.00696381274611,-0.0339594036341,-9.82645606995,0.319387853146
1560116809007351398,-0.0192662589252,0.0855306759477,0.00696381274611,-0.113270007074,-9.82646560669,0.311198979616
1560116809011266947,-0.0179816613857,0.0855306759477,0.00696381274611,-0.149940535426,-9.90717887878,0.202970400453
1560116809015183687,-0.0141473129144,0.0839023902765,0.00533552620607,-0.26850554347,-9.92719841003,0.185835152864
1560116809019100189,-0.01228494104,0.0811720920965,0.00260522651131,-0.397968947887,-9.9071187973,0.188594013453
1560116809023015738,-0.01228494104,0.0802946910262,0.00172782491427,-0.357891708612,-9.847905159,0.107566416264
1560116809026932478,-0.01228494104,0.0792016588478,0.000634792179975,-0.269118636847,-9.78825283051,0.0852337181568
1560116809030848980,-0.0119524024981,0.0802946910262,-1.75042805495e-05,-0.170421928167,-9.76821422577,0.102813705802
1560116809034765720,-0.00922143225161,0.0802946910262,-1.75042805495e-05,-0.231001600623,-9.76767635345,0.163954705
1560116809038682222,-0.00704895332456,0.0802946910262,-1.75042805495e-05,-0.439932793379,-9.72772312164,0.148425012827
1560116809042598724,-0.00704895332456,0.0772069184189,-0.00156139144667,-0.460136592388,-9.76714897156,0.208940386772
1560116809046515465,-0.00530362408608,0.0709606169795,-0.00429241422574,-0.273321926594,-9.70693969727,0.264126360416
1560116809050432920,-0.00530362408608,0.0663069601736,-0.00699882116169,0.0230773668736,-9.70639801025,0.35713326931
1560116809054350615,-0.00530362408608,0.0645867288113,-0.00699882116169,0.200586751103,-9.72571468353,0.452940523624
1560116809058267117,-0.00505272341902,0.0683282859587,-0.00699882116169,0.13904799521,-9.66528224945,0.513685703278
1560116809062181711,-0.00355829484761,0.0722928658819,-0.00823389789532,-0.177230075002,-9.70541191101,0.461258620024
1560116809066099405,-0.00530362408608,0.073313370347,-0.00874415040016,-0.465010821819,-9.76472473145,0.507974267006
1560116809070015907,-0.00384211692586,0.0718518639667,-0.00874415040016,-0.446437090635,-9.74429416656,0.567204356194
1560116809073932648,-0.00251445590635,0.067718243964,-0.00944564069738,-0.160291597247,-9.72377872467,0.660301744938
1560116809077850103,-0.00524642740891,0.0612104618871,-0.0121776121999,0.177479475737,-9.68447494507,0.612606167793
1560116809081766844,-0.00797679310286,0.058422897156,-0.0122348088771,0.237270414829,-9.59549427032,0.511000335217
1560116809085683346,-0.0105396118015,0.0593507364392,-0.0122348088771,0.159406334162,-9.65564155579,0.473303854465
1560116809089596987,-0.0116911439637,0.0593507364392,-0.0122348088771,0.119494177401,-9.70503234863,0.534329891205
1560116809093513727,-0.0109313590169,0.0572136611257,-0.0122348088771,0.102524153888,-9.80548381805,0.45569190383
1560116809097430229,-0.01228494104,0.0558600798249,-0.0136120176421,0.133636876941,-9.76655101776,0.335147380829
1560116809101347685,-0.0129026315716,0.0528793697953,-0.0139801381156,0.22400316596,-9.82652568817,0.333541840315
1560116809105263472,-0.0140302702785,0.04902153339,-0.0123775794722,0.340639472008,-9.72632408142,0.3900205791
1560116809109179020,-0.0131882705018,0.0445461032041,-0.0122348088771,0.519464492798,-9.68687725067,0.345882892609
1560116809113094568,-0.0105396118015,0.0402337165765,-0.0104078806285,0.630191683769,-9.72730922699,0.293861687183
1560116809117011309,-0.0116065624782,0.0418974459171,-0.00767719972352,0.551840186119,-9.78721237183,0.286068618298
1560116809120927811,-0.0119780076527,0.0439497074478,-0.00669188777437,0.324324607849,-9.80729579926,0.251443862915
1560116809124845505,-0.0105396118015,0.0479741096034,-0.00525349192321,0.206388518214,-9.90685176849,0.274707496166
1560116809128762007,-0.0105396118015,0.048878762871,-0.00578688405967,0.244856804609,-9.7874212265,0.233155280352
1560116809132679701,-0.00902013511136,0.048878762871,-0.00547934447154,0.387136876583,-9.9673910141,0.211293846369
1560116809136596203,-0.00704895332456,0.0446287506807,-0.00525349192321,0.546397507191,-10.0073003769,0.227935373783
1560116809140513897,-0.00530362408608,0.0436427742243,-0.00525349192321,0.55376881361,-9.867395401,0.246725142002
1560116809144430399,-0.00355829484761,0.04015211761,-0.00252218576799,0.522677123547,-9.8271150589,0.286999583244
1560116809148346901,-0.00333244229928,0.0406038224656,-1.75042805495e-05,0.323360264301,-9.76720428467,0.271115601063
1560116809152262688,-0.00181296560913,0.0436427742243,-1.75042805495e-05,0.282984375954,-9.72724056244,0.271741211414
1560116809156180143,-0.00181296560913,0.0436427742243,-1.75042805495e-05,0.402513682842,-9.74731063843,0.269204735756
1560116809160097837,-0.000375235074393,0.0422050444447,-1.75042805495e-05,0.541581094265,-9.78704166412,0.306226581335
1560116809164014339,-6.76363852108e-05,0.0425751592392,0.00066020938622,0.590580880642,-9.86597537994,0.42525601387
1560116809167930841,-6.76363852108e-05,0.0453056719822,0.00172782491427,0.341257840395,-9.84546661377,0.470554471016
1560116809171845675,-6.76363852108e-05,0.0462314327025,0.00172782491427,0.101879514754,-9.78535842896,0.475495576859
1560116809175763130,-6.76363852108e-05,0.0436427742243,0.000125266310998,0.0993009507656,-9.70485305786,0.554710268974
1560116809179680824,-6.76363852108e-05,0.0425138062084,0.000598856324205,0.157941430807,-9.66481494904,0.573047757149
1560116809183597326,-6.76363852108e-05,0.0397826774053,-1.75042805495e-05,0.17862470448,-9.65533638,0.512730300426
1560116809187514067,-6.76363852108e-05,0.039761072287,0.00133677939239,0.158431485295,-9.65515613556,0.533110618591
1560116809191428661,-6.76363852108e-05,0.0407452500791,0.00113469214345,0.0800773277879,-9.72496128082,0.535351276398
1560116809195346117,-6.76363852108e-05,0.0403182204662,-1.75042805495e-05,0.0973617583513,-9.66427707672,0.634188771248
1560116809199263811,-0.00263328022147,0.0375864733773,0.000802810311273,0.137412756681,-9.70407962799,0.653498768806
1560116809203180313,-0.00530362408608,0.0367219561115,0.00172782491427,0.128453463316,-9.70455646515,0.593914330006
1560116809207097054,-0.00530362408608,0.0384067893028,0.00172782491427,0.128437682986,-9.76396465302,0.654116868973
1560116809211014748,-0.00384494342362,0.0363748088473,0.00144117634543,0.158591330051,-9.66513824463,0.533176600933
1560116809214931250,-0.00530362408608,0.0336439885044,-1.75042805495e-05,0.201231390238,-9.74584007263,0.433136850595
1560116809218847990,-0.00530362408608,0.0314254686236,-1.75042805495e-05,0.220779955387,-9.7258939743,0.43256020546
1560116809222764492,-0.00680137848227,0.0314254686236,0.00148025007817,0.163098558784,-9.82582569122,0.414618432522
1560116809226679087,-0.00879428256303,0.0339070412101,0.000991583985786,0.0823467150331,-9.74589538574,0.415869683027
1560116809230595589,-0.0053511591931,0.0331945681969,-1.75042805495e-05,-0.0153751540929,-9.76641750336,0.338482916355
1560116809234511137,-0.00434254607539,0.0322097211069,-1.75042805495e-05,0.0644281357527,-9.74684810638,0.29670086503
1560116809238430023,-0.00550656151595,0.0316284063784,-1.75042805495e-05,0.14469781518,-9.80673122406,0.305285453796
1560116809242347479,-0.00704895332456,0.0331708006561,-1.75042805495e-05,0.146128565073,-9.92627811432,0.335980415344
1560116809246263266,-0.00487531378576,0.0327424896701,-1.75042805495e-05,0.133951306343,-9.80631828308,0.355346828699
1560116809250179768,-0.00214400756477,0.0300111805861,-1.75042805495e-05,0.142921119928,-9.76623630524,0.37479621172
1560116809254095316,-6.76363852108e-05,0.0279348101467,-1.75042805495e-05,0.14469781518,-9.80673122406,0.305285453796
1560116809258012056,-6.76363852108e-05,0.0262960202909,-1.75042805495e-05,0.163098558784,-9.82582569122,0.414618432522
1560116809261927605,-6.76363852108e-05,0.0279348101467,-1.75042805495e-05,0.122067473829,-9.80534076691,0.47518274188
1560116809265844107,-0.00181296560913,0.0279348101467,-0.00350816268474,0.0803970173001,-9.74492549896,0.535483241081
1560116809269760847,-0.000709524147359,0.0257279272047,-0.00240472128737,0.12078345567,-9.74528503418,0.494722574949
1560116809273677349,-6.76363852108e-05,0.0202658027321,-0.000361349519475,0.119169227779,-9.70487117767,0.554265499115
1560116809277594090,-6.76363852108e-05,0.0174628347158,-0.00309218920358,0.057950168848,-9.66440296173,0.615142643452
1560116809281511545,-6.76363852108e-05,0.015717504546,-0.00468323934169,0.0963869094849,-9.66379165649,0.693995535374
1560116809285427332,-0.00162277148725,0.015717504546,-0.00350816268474,0.0755516886711,-9.63358402252,0.724145770073
1560116809289344788,-0.00355829484761,0.0158716371268,-0.00350816268474,0.0955876857042,-9.61388015747,0.693665742874
1560116809293261290,-0.00181296560913,0.0139367602848,-0.00354357863885,0.0952495858073,-9.66322612762,0.763770103455
1560116809297178984,-0.00283480031305,0.0122268470004,-0.0042316572193,0.0944451019168,-9.63311767578,0.783507823944
1560116809301096439,-0.00382104096954,0.0122268470004,-0.00324541658033,0.173417598009,-9.68245506287,0.861801028252
1560116809305013180,-0.00655180822542,0.0122268470004,-0.00176283356268,0.215418294072,-9.72322750092,0.761497497559
1560116809308930635,-0.0105396118015,0.0104815177619,-0.00225209718801,0.196378171444,-9.6642036438,0.651900649071
1560116809312845469,-0.0105396118015,0.00900803860889,-0.00350816268474,0.118498288095,-9.7837600708,0.674406766891
1560116809316761971,-0.0112530740916,0.00627739699494,-0.00350816268474,0.0778079405427,-9.70402622223,0.654832959175
1560116809320680618,-0.01228494104,0.00524553004652,-0.00350816268474,0.178443834186,-9.72456645966,0.592934370041
1560116809324597120,-0.01228494104,0.00350020104088,-0.00256824240563,0.179748892784,-9.70540904999,0.493124514818
1560116809328513622,-0.01228494104,0.00350020104088,-1.75042805495e-05,0.180068582296,-9.7253742218,0.493256419897
1560116809332431316,-0.01228494104,0.00233365542859,-1.75042805495e-05,0.140001833439,-9.74497890472,0.534149050713
1560116809336346865,-0.01228494104,0.00175487168599,-0.000423201911587,0.101240135729,-9.745429039,0.475231707096
1560116809340263605,-0.01228494104,0.00175487168599,-0.00176283356268,0.122722633183,-9.78586101532,0.415244042873
1560116809344182014,-0.0116520892758,9.54246752372e-06,-0.00287531096277,0.161814540625,-9.76576900482,0.434158265591
1560116809348099947,-0.0089203145149,-0.00160975483764,-0.00338213074127,0.281024158001,-9.76587581635,0.431489825249
1560116809352016449,-0.00879428256303,-0.00434014808413,-0.00350816268474,0.340309262276,-9.74596500397,0.430023670197
1560116809355934143,-0.00889404405587,-0.005026922392,-0.00186259504886,0.281983196735,-9.82577037811,0.43188560009
1560116809359851599,-0.0105396118015,-0.000649900195017,-0.00350816268474,0.182647138834,-9.80587863922,0.414041757584
1560116809363767147,-0.0102141802183,9.54246752372e-06,-0.00318273112323,0.144535347819,-9.80665016174,0.315253257751
1560116809367683887,-0.00879428256303,-0.00261252404091,-0.00176283356268,0.145819351077,-9.86670780182,0.295713454485
1560116809371600389,-0.00879428256303,-0.00632814488956,-0.000568354046947,0.223688736558,-9.78675746918,0.313342392445
1560116809375518084,-0.00879428256303,-0.00871710386127,-0.00176283356268,0.244516074657,-9.84666919708,0.313293427229
1560116809379434586,-0.00704895332456,-0.00871710386127,-1.75042805495e-05,0.203490257263,-9.80638027191,0.353790223598
1560116809383351326,-0.00526839228468,-0.0104800490004,-0.0017804494622,0.184266626835,-9.82649040222,0.334431320429
1560116809387268782,-0.000809625737105,-0.0122077623382,-0.00350816268474,0.16407866776,-9.8065071106,0.334744125605
1560116809391185284,-6.76363852108e-05,-0.0119639381218,-0.00176283356268,0.185220465064,-9.90618801117,0.354894608259
1560116809395101070,-6.76363852108e-05,-0.00923381982734,-0.00176283356268,0.182966828346,-9.82584381104,0.414173692465
1560116809399018526,-6.76363852108e-05,-0.0069717746228,-0.00129362167318,0.282627880573,-9.84589767456,0.412081927061
1560116809402934313,-6.76363852108e-05,-0.00842577232972,-1.75042805495e-05,0.300263553858,-9.68635845184,0.390646219254
1560116809406850815,-6.76363852108e-05,-0.0118509186015,-1.75042805495e-05,0.3201212883,-9.72598266602,0.430336505175
1560116809410767317,-6.76363852108e-05,-0.0156329097486,-1.75042805495e-05,0.299267679453,-9.76508522034,0.53072309494
1560116809414684057,-6.76363852108e-05,-0.0121134878258,-1.75042805495e-05,0.23901823163,-9.74490642548,0.551860928535
1560116809418600559,-6.76363852108e-05,-0.00713137804854,-1.75042805495e-05,0.158895254135,-9.74451255798,0.593511104584
1560116809422516346,-6.76363852108e-05,-0.00986159839273,-1.75042805495e-05,0.128778412938,-9.70471763611,0.573978722095
1560116809426432848,-6.76363852108e-05,-0.011231893579,-1.75042805495e-05,0.128442943096,-9.74416255951,0.634049355984
1560116809430350304,-6.76363852108e-05,-0.0153238153329,-1.75042805495e-05,0.136768087745,-9.68395423889,0.673302412033
1560116809434266090,-6.76363852108e-05,-0.0168335414304,-1.75042805495e-05,0.12747335434,-9.72387504578,0.673788666725
1560116809438183546,-6.76363852108e-05,-0.0156984198838,-1.75042805495e-05,0.156636372209,-9.6839723587,0.672857642174
1560116809442099333,-6.76363852108e-05,-0.0174437500536,-1.75042805495e-05,0.156950816512,-9.72373962402,0.693057060242
1560116809446015835,-0.000143621294283,-0.0174437500536,-1.75042805495e-05,0.1338724792,-9.57358264923,0.742351412773
1560116809449932337,-0.00287442260764,-0.0174437500536,-1.75042805495e-05,0.195880234241,-9.70356750488,0.721939086914
1560116809453866005,-0.00530362408608,-0.0212480093153,-1.75042805495e-05,0.196053221822,-9.66404247284,0.671836256981
1560116809457766533,-0.00530362408608,-0.0239674935289,-1.75042805495e-05,0.198946222663,-9.78431510925,0.612820982933
1560116809461683273,-0.00704895332456,-0.0238972120164,-1.75042805495e-05,0.177468985319,-9.72408103943,0.652741193771
1560116809465599775,-0.00553581408948,-0.0226797368377,-1.75042805495e-05,0.158245354891,-9.74418926239,0.633382260799
1560116809469516277,-0.00605696384139,-0.0224410880412,-1.75042805495e-05,0.198626533151,-9.76434993744,0.612689137459
1560116809473433971,-0.00704895332456,-0.0244250670075,-1.75042805495e-05,0.178779274225,-9.68512153625,0.532863795757
1560116809477348566,-0.00704895332456,-0.0244250670075,-1.75042805495e-05,0.130397900939,-9.72532939911,0.494368284941
1560116809481265306,-0.00726709855784,-0.0226797368377,-0.00154468832394,0.131351709366,-9.80502605438,0.514831542969
1560116809485181808,-0.00879428256303,-0.0226797368377,-1.75042805495e-05,0.101879514754,-9.78535842896,0.475495576859
1560116809489100695,-0.00790341791883,-0.0204889764462,-1.75042805495e-05,0.163412988186,-9.86559391022,0.434817880392
1560116809493017197,-0.00387270977154,-0.0191890802234,-1.75042805495e-05,0.203160047531,-9.82602214813,0.393793344498
1560116809496933699,-0.00114213265549,-0.0233505701549,-1.75042805495e-05,0.241277068853,-9.80544662476,0.472514331341
1560116809500850439,-0.00172451010806,-0.0244250670075,-1.75042805495e-05,0.359831541777,-9.82503318787,0.529784619808
1560116809504766941,-0.00535115467475,-0.0270668266126,-0.000913934216544,0.339968532324,-9.80521297455,0.510161817074
1560116809508683681,-0.00879428256303,-0.0314063802361,-1.75042805495e-05,0.26146504283,-9.82542991638,0.472201496363
1560116809512598038,-0.00655292243436,-0.0314063802361,-1.75042805495e-05,0.142250180244,-9.84512615204,0.494937449694
1560116809516514540,-0.00319746135838,-0.0306847140279,-1.75042805495e-05,0.119813866913,-9.72499752045,0.534461855888
1560116809520432472,-0.00181296560913,-0.0279157254845,-1.75042805495e-05,0.160184532404,-9.78476524353,0.553903698921
1560116809524348974,-0.00181296560913,-0.0279157254845,-1.75042805495e-05,0.159235969186,-9.68526554108,0.513372898102
1560116809528263569,-0.00181296560913,-0.0294880332887,-0.00158981296308,0.157930925488,-9.7044210434,0.613182783127
1560116809532179117,-0.00181296560913,-0.0314063802361,-0.000950917211622,0.127148404717,-9.72371292114,0.693724215031
1560116809536095858,-6.76363852108e-05,-0.0331517122686,-1.75042805495e-05,0.0576094537973,-9.72365093231,0.695280790329
1560116809540012360,-0.00110515701788,-0.0331517122686,-1.75042805495e-05,0.0781118497252,-9.78340053558,0.715167403221
1560116809543931246,-0.00355829484761,-0.0314063802361,-0.00204183390866,0.156316682696,-9.66400718689,0.672725737095
1560116809547847748,-0.00355829484761,-0.0314063802361,-0.000979172072646,0.255173236132,-9.6539516449,0.690371632576
1560116809551765442,-0.00406379707852,-0.0348970405757,-1.75042805495e-05,0.392469137907,-9.63338375092,0.776836752892
1560116809555681944,-0.0082851656697,-0.0363878105721,-1.75042805495e-05,0.294097393751,-9.65358352661,0.739321231842
1560116809559598684,-0.00879428256303,-0.0366423688829,-0.00103198314063,0.155991733074,-9.66384506226,0.6926612854
1560116809563513279,-0.00707888156319,-0.0366423688829,-1.75042805495e-05,0.127153664827,-9.70390987396,0.673656702042
1560116809567431688,-0.00800521121997,-0.0403002156856,-1.75042805495e-05,0.136762857437,-9.7037563324,0.693369865417
1560116809571348429,-0.00879428256303,-0.0418783575296,-0.00176283356268,0.217850163579,-9.74424266815,0.632048010826
1560116809575264931,-0.00879428256303,-0.0395139117625,-0.000580610018685,0.318816274405,-9.74513912201,0.530146360397
1560116809579181433,-0.00837195292143,-0.0366423688829,-1.75042805495e-05,0.219805121422,-9.72540950775,0.492366939783
1560116809583096266,-0.00704895332456,-0.0380490100708,-1.75042805495e-05,0.122062213719,-9.82514381409,0.495250254869
1560116809587013721,-0.00465656573796,-0.0401330292225,-1.75042805495e-05,0.132971197367,-9.82563686371,0.435221135616
1560116809590930462,-0.00355829484761,-0.0385005546037,-1.75042805495e-05,0.133615851402,-9.84576416016,0.415417462587
1560116809594847918,-0.00443162445455,-0.0383877009153,-1.75042805495e-05,0.223023056984,-9.8458442688,0.413416147232
1560116809598764420,-0.00530362408608,-0.0419918762688,-0.00176283356268,0.202520668507,-9.78609275818,0.393529504538
1560116809602681160,-0.00530362408608,-0.045821767769,-0.000663793155522,0.163114339113,-9.76641559601,0.354415863752
1560116809606597662,-0.00530362408608,-0.0488596744835,-1.75042805495e-05,0.222388938069,-9.78611087799,0.393084764481
1560116809610514402,-0.00397862428429,-0.0475346753888,-1.75042805495e-05,0.263409525156,-9.84620285034,0.3726554811
1560116809614430904,-0.00299374677451,-0.0471143461764,-0.00176283356268,0.183297038078,-9.80620193481,0.374170571566
1560116809618345499,-0.000264332871489,-0.0455657109467,-0.000214200773387,0.133290886879,-9.84560203552,0.435353040695
1560116809622262239,0.000721434267381,-0.0453690141439,-1.75042805495e-05,-0.0173195917159,-9.7456445694,0.43802896142
1560116809626179695,0.00167769286782,-0.0453989310384,-4.7421127844e-05,0.0419444963336,-9.80494594574,0.516832888126
1560116809630096436,0.000662382530174,-0.0471143461764,-0.00277814382413,0.160829171538,-9.80489063263,0.534100055695
1560116809634013891,-6.76363852108e-05,-0.0471143461764,-0.00350816268474,0.220753669739,-9.82490921021,0.532897770405
1560116809637929440,0.0011729734694,-0.0483549553587,-0.00226755292322,0.199915811419,-9.80460262299,0.573081731796
1560116809641844273,0.00167769286782,-0.0510846741657,-0.0022425041378,0.130382120609,-9.78473854065,0.554570794106
1560116809645760775,0.00167769286782,-0.0538154996785,-0.00350816268474,0.0207974594086,-9.72507095337,0.516749978065
1560116809649677277,0.000972876739954,-0.0575863197446,-0.00350816268474,0.120128296316,-9.76476478577,0.554661273956
1560116809653595924,-6.76363852108e-05,-0.055894676494,-0.00350816268474,0.196703121066,-9.66436576843,0.631965041161
1560116809657512426,0.00167769286782,-0.0567727415928,-0.000831082886788,0.238043397665,-9.74442100525,0.611667692661
1560116809661429167,0.00167769286782,-0.0593316480517,-1.75042805495e-05,0.277785181999,-9.72465515137,0.590710759163
1560116809665345669,0.00167769286782,-0.0570167355399,-1.75042805495e-05,0.277465462685,-9.70468997955,0.590578794479
1560116809669262171,0.00167769286782,-0.0540956631303,-0.000414888395527,0.29731798172,-9.76411533356,0.650336623192
1560116809673178911,0.00167769286782,-0.0554785308117,-0.00176283356268,0.19700704515,-9.74373912811,0.692299544811
1560116809677095413,0.00167769286782,-0.0564640973584,-0.00113972729368,0.137737706304,-9.70424175262,0.633563160896
1560116809681011200,0.00167769286782,-0.0559781633297,-1.75042805495e-05,0.139026984572,-9.74449443817,0.593955814838
1560116809684928656,0.000829220156895,-0.0575863197446,-1.75042805495e-05,0.137732446194,-9.7240447998,0.653630673885
1560116809688845158,2.0810706194e-05,-0.0592432010083,-1.75042805495e-05,0.196362406015,-9.72361373901,0.712103247643
1560116809692761898,0.000603669782853,-0.0575863197446,-1.75042805495e-05,0.256286889315,-9.74363136292,0.710900902748
1560116809696678400,-6.76363852108e-05,-0.0596460636046,-0.00176283356268,0.27681556344,-9.70436668396,0.6304500103
1560116809700595140,-6.76363852108e-05,-0.0610769800842,-0.00306277290983,0.197342514992,-9.70429515839,0.632228970528
1560116809704512596,-6.76363852108e-05,-0.0593316480517,-0.00296732853426,0.136443138123,-9.68379211426,0.693238019943
1560116809708429337,-6.76363852108e-05,-0.0608580240408,-0.00176283356268,0.179062172771,-9.84370803833,0.673468351364
1560116809712347031,-6.76363852108e-05,-0.0645676404238,-1.75042805495e-05,0.214519679546,-9.43559837341,0.530325293541
1560116809716263533,-6.76363852108e-05,-0.0663059857943,-1.75042805495e-05,0.319471389055,-9.7256603241,0.470207691193
1560116809720181227,-6.76363852108e-05,-0.0635743894397,-1.75042805495e-05,0.356094628572,-9.82317447662,0.759043931961
1560116809724097729,-6.76363852108e-05,-0.0645676404238,-0.00176283356268,0.277889847755,-9.94256973267,0.801485657692
1560116809728014469,-6.76363852108e-05,-0.0645676404238,-0.000543913036134,0.23533654213,-9.535115242,0.570411324501
1560116809731930017,0.00213593070939,-0.062822304666,-0.00130459570965,0.0797681435943,-9.66539001465,0.495084345341
1560116809735846519,0.00197949481897,-0.0642658373453,-1.75042805495e-05,-0.0587124228477,-9.86362075806,0.659001529217
1560116809739764214,-6.76363852108e-05,-0.0687428996709,-1.75042805495e-05,0.176824346185,-9.70395469666,0.672544836998
1560116809743681669,-6.76363852108e-05,-0.0714743058232,-1.75042805495e-05,0.33931863308,-9.80488967896,0.550032973289
1560116809747599363,-6.76363852108e-05,-0.0697263105957,-1.75042805495e-05,0.338024109602,-9.78444004059,0.609707832336
1560116809751514912,-6.76363852108e-05,-0.0642651740206,-0.000168737405238,0.178758263588,-9.7643327713,0.613133847713
1560116809755430460,-6.76363852108e-05,-0.059941625052,-0.00176283356268,-0.0570929199457,-9.88423156738,0.579391002655
1560116809759347200,-6.76363852108e-05,-0.0614527347755,-1.75042805495e-05,-0.177240595222,-9.74501800537,0.501393675804
1560116809763264656,-6.76363852108e-05,-0.0669075453014,-1.75042805495e-05,0.0614930689335,-9.78499984741,0.516256213188
1560116809767183304,0.00167769286782,-0.0745014893906,-0.00176283356268,0.415254056454,-9.66456127167,0.627072930336
1560116809771099806,0.00326672926357,-0.0767849460244,-0.00335186985244,0.567148625851,-9.82457351685,0.604857206345
1560116809775016546,0.00259383729351,-0.0725520571557,-0.00350816268474,0.377781689167,-9.70526313782,0.528548359871
1560116809778933048,-6.76363852108e-05,-0.0678517909618,-0.00176283356268,0.15952937305,-9.80424404144,0.613842368126
1560116809782848597,-6.76363852108e-05,-0.0607148129605,-0.00281657990743,0.0601932704449,-9.78435325623,0.595998644829
1560116809786766291,0.000522006960085,-0.0596264701951,-0.00350816268474,0.0432232841849,-9.88480567932,0.517360568047
1560116809790683746,0.00470379450587,-0.0636385262502,-0.00350816268474,0.160504221916,-9.80472946167,0.554035663605
1560116809794600487,0.00691368058324,-0.0685791692294,-0.00350816268474,0.279383599758,-9.82447814941,0.591370344162
1560116809798516989,0.00691368058324,-0.0713097835276,-0.00350816268474,0.398912936449,-9.84454917908,0.588833808899
1560116809802433729,0.00616715451222,-0.0690570996726,-0.00176283356268,0.475503534079,-9.6847410202,0.605935096741
1560116809806350231,0.00516835134476,-0.0663262706281,-0.00176283356268,0.237728953362,-9.70465373993,0.591468274593
1560116809810264826,0.00516835134476,-0.0608809445826,-0.00176283356268,0.0409643873572,-9.82426452637,0.596707224846
1560116809814182520,0.00516835134476,-0.0577980659337,-0.00176283356268,-0.0196047592908,-9.78411960602,0.617713093758
1560116809818101168,0.00516835134476,-0.0617280050921,-0.00176283356268,0.139346674085,-9.76445865631,0.594087719917
1560116809822017908,0.00560696967946,-0.0650062585244,-0.00176283356268,0.359165877104,-9.88411998749,0.629858374596
1560116809825934410,0.00691368058324,-0.0663129687309,-0.00176283356268,0.545173406601,-9.80370140076,0.714815855026
1560116809829850912,0.00757794265645,-0.0680582970381,-0.00242709559158,0.415243566036,-9.70416736603,0.667207956314
1560116809833767653,0.00865900982171,-0.0664084070888,-0.00185827196512,0.156961321831,-9.68413352966,0.652922093868
1560116809837683201,0.00951521530716,-0.062822304666,-0.000873709787415,0.075724683702,-9.59405899048,0.67404294014
1560116809841600895,0.00865900982171,-0.0648273530977,-1.75042805495e-05,0.0955692753196,-9.68319129944,0.763902068138
1560116809845518351,0.00865900982171,-0.0680582970381,-0.00113347147833,0.214432924986,-9.76234817505,0.861439228058
1560116809849435091,0.00830283043881,-0.0680582970381,-0.00176283356268,0.392932921648,-9.72274017334,0.837237238884
1560116809853351593,0.00691368058324,-0.0693999236917,-0.00176283356268,0.392613261938,-9.70277500153,0.8371052742
1560116809857268095,0.00516835134476,-0.0692221816624,-0.00176283356268,0.254164218903,-9.78218650818,0.880617380142
1560116809861183882,0.00360202606848,-0.0664919725976,-0.000196508247215,0.122127451003,-9.66179847717,0.942523360252
1560116809865101337,0.00342302210629,-0.0637601444312,-1.75042805495e-05,0.133526489139,-9.65263271332,0.842557072639
1560116809869018078,0.00163015776041,-0.0593316480517,-6.50393887521e-05,0.123917303979,-9.65278625488,0.822843909264
1560116809872935534,-6.76363852108e-05,-0.0603650816382,-0.00279626542588,0.191522330046,-9.59246826172,0.88069832325
1560116809876852989,-6.76363852108e-05,-0.0630961509902,-0.00350816268474,0.250786423683,-9.65177059174,0.959502220154
1560116809880768776,-6.76363852108e-05,-0.0645676404238,-0.00224943863148,0.311840385199,-9.70205783844,0.91862654686
1560116809884685278,-0.00181296560913,-0.0645676404238,-0.00300902190425,0.271789371967,-9.66225528717,0.89931666851
1560116809888602972,-0.00181296560913,-0.0630822520125,-0.00176283356268,0.171648800373,-9.61225509644,0.901210546494
1560116809892519474,-0.00253845488911,-0.0635477966559,-0.00176283356268,0.134330958128,-9.68274211884,0.82281935215
1560116809896435976,-0.00526937276341,-0.0662787174265,-0.00347391136435,0.134650677443,-9.70270633698,0.822951316833
1560116809900353670,-0.00704895332456,-0.0645676404238,-0.0025563616254,0.193456247449,-9.65284824371,0.821287274361
1560116809904270172,-0.00724066212139,-0.0647593491183,-0.00176283356268,0.255804747343,-9.72358608246,0.720736861229
1560116809908188105,-0.00879428256303,-0.0663129687309,-0.00176283356268,0.314932614565,-9.68379116058,0.709170937538
1560116809912104607,-0.0074671281407,-0.0658947941379,-0.00176283356268,0.256611853838,-9.74379253387,0.690965294838
1560116809916021347,-0.00879428256303,-0.0631638233039,-0.00176283356268,0.13869677484,-9.76413536072,0.633958935738
1560116809919935703,-0.0111817435537,-0.0617191101231,-0.00176283356268,0.100254759192,-9.78454971313,0.5751734972
1560116809923854351,-0.0139139260568,-0.0660802799152,-0.00176283356268,0.130057170987,-9.78457641602,0.574506402016
1560116809927771091,-0.0131610131738,-0.0654437120901,-1.75042805495e-05,0.201205104589,-9.84485626221,0.533474445343
1560116809931687593,-0.00868471162167,-0.0609674089674,-0.00176283356268,0.199606642127,-9.74503231049,0.532814860344
1560116809935604334,-0.00595375970141,-0.0593316480517,-0.00285802711278,0.180388271809,-9.74533843994,0.493388354778
1560116809939520836,-0.00496875767604,-0.0596665149978,-0.00525349192321,0.161489591002,-9.76560783386,0.454093843699
1560116809943436384,-0.00355829484761,-0.0610769800842,-0.00393356488008,0.101559825242,-9.76539325714,0.475363641977
1560116809947353125,-0.00181296560913,-0.062822304666,-0.00581348717092,0.131681919098,-9.78538513184,0.474828451872
1560116809951270580,-0.00181296560913,-0.0643682109816,-0.00854472170288,0.162128970027,-9.80553722382,0.454357683659
1560116809955186129,-0.00259845557694,-0.062822304666,-0.00699882116169,0.103158287704,-9.86521816254,0.476023256779
1560116809959103823,-0.00355829484761,-0.0628754856442,-0.00525349192321,0.132305547595,-9.88472366333,0.535294890404
1560116809963022470,-0.00355829484761,-0.0683394578609,-0.00525349192321,0.198306843638,-9.7443857193,0.612557172775
1560116809966938972,-0.00181296560913,-0.0698036253452,-0.00376136644336,0.217860683799,-9.70463657379,0.591912984848
1560116809970856428,-0.00181296560913,-0.0698036253452,-0.00525349192321,0.218041554093,-9.63540649414,0.511708915234
1560116809974773169,-0.0022925906222,-0.0680582970381,-0.00573311693628,0.156487047672,-9.6343832016,0.632656693459
1560116809978688717,-0.00355829484761,-0.0680582970381,-0.00699882116169,0.0958994850516,-9.66354942322,0.723898947239
1560116809982607365,-0.00285264744378,-0.0687639440654,-0.00699882116169,0.156463384628,-9.72349739075,0.722960472107
1560116809986523867,-0.00181296560913,-0.0714944435101,-0.00699882116169,0.295536011457,-9.74342441559,0.739914834499
1560116809990440607,-0.00274421782189,-0.0742255336754,-0.00432223971046,0.354490906,-9.74315452576,0.778451800346
1560116809994358063,-0.00530362408608,-0.0750396102667,-0.00368040157253,0.253545880318,-9.6630449295,0.800083398819
1560116809998274565,-0.00646124908191,-0.0750396102667,-0.00525349192321,0.15387955308,-9.66279506683,0.822242736816
1560116810002192497,-0.00530362408608,-0.0728954261719,-0.00699882116169,0.153730228543,-9.6132068634,0.782041668892
1560116810006109953,-0.00530362408608,-0.0715489536524,-0.00699882116169,0.173603758216,-9.59342098236,0.761529445648
1560116810010027647,-0.00655463492182,-0.0715489536524,-0.00462798650534,0.275023132563,-9.72328090668,0.76016330719
1560116810013944149,-0.0104049977968,-0.0699382392781,-0.00350816268474,0.315718740225,-9.78320980072,0.759669542313
1560116810017861843,-0.0114331352562,-0.0698036253452,-0.00525349192321,0.375648468733,-9.78342533112,0.738399744034
1560116810021778345,-0.0105396118015,-0.0698036253452,-0.00525349192321,0.37808033824,-9.80443954468,0.608950257301
1560116810025695086,-0.0105396118015,-0.0708810504272,-0.00525349192321,0.277790427208,-9.70485115051,0.570643186569
1560116810029612541,-0.0108576548301,-0.0712309107935,-0.00525349192321,0.278749525547,-9.76474475861,0.571038961411
1560116810033529043,-0.01228494104,-0.0711070120392,-0.00525349192321,0.357268750668,-9.68511962891,0.548796772957
1560116810037445784,-0.0111969774623,-0.0715489536524,-0.00525349192321,0.417043924332,-9.65554904938,0.507393479347
1560116810041361332,-0.00879428256303,-0.070020503232,-0.00525349192321,0.457579731941,-9.70549583435,0.506833791733
1560116810045278072,-0.00879428256303,-0.0672898010919,-0.00273966637972,0.438025861979,-9.74524593353,0.52747797966
1560116810049194574,-0.0105396118015,-0.0645766151244,-0.00176283356268,0.319125413895,-9.80470943451,0.570413351059
1560116810053112030,-0.0115341884803,-0.067307544879,-0.00176283356268,0.279069185257,-9.78470993042,0.571170926094
1560116810057028770,-0.01228494104,-0.0735292200766,-1.75042805495e-05,0.299262404442,-9.78488922119,0.550790548325
1560116810060944319,-0.01228494104,-0.0750396102667,-1.75042805495e-05,0.279063940048,-9.8045129776,0.591238379478
1560116810064861059,-0.0105396118015,-0.0728341016519,-1.75042805495e-05,0.298937469721,-9.78472709656,0.570726156235
1560116810068777561,-0.00909406636856,-0.0686578643292,-1.75042805495e-05,0.280033499002,-9.82480144501,0.551499128342
1560116810072694063,-0.0063635553885,-0.0621369085587,-0.000702902233748,0.299597889185,-9.74544429779,0.490719914436
1560116810076610804,-0.00530362408608,-0.0627476783443,-0.00176283356268,0.260815143585,-9.82510662079,0.512072682381
1560116810080526352,-0.00795917720216,-0.0637325319436,-0.000852609662312,0.220119550824,-9.76517677307,0.512566447258
1560116810084442854,-0.00704895332456,-0.066463385183,-1.75042805495e-05,0.200890660286,-9.80508804321,0.513275027275
1560116810088359594,-0.00704895332456,-0.066922345665,-1.75042805495e-05,0.341588020325,-9.82582378387,0.430551379919
1560116810092277050,-0.00530362408608,-0.0645676404238,-1.75042805495e-05,0.421380788088,-9.84585952759,0.428904354572
1560116810096193790,-0.0039415663415,-0.0672917544593,-1.75042805495e-05,0.301846235991,-9.8455915451,0.451508373022
1560116810100110292,-0.00121069284081,-0.0674560245861,-1.75042805495e-05,0.18198671937,-9.84516239166,0.49404796958
1560116810104026794,-6.76363852108e-05,-0.0647252637912,-1.75042805495e-05,0.161814540625,-9.76576900482,0.434158265591
1560116810107943535,-0.000895246598072,-0.062822304666,-0.00176283356268,0.182002484798,-9.78575229645,0.433845430613
1560116810111860037,-0.00181296560913,-0.0645676404238,-1.75042805495e-05,0.299283444881,-9.70567703247,0.470520496368
1560116810115776777,-0.000759317271912,-0.0645676404238,0.0010361440391,0.437381237745,-9.72512054443,0.547281622887
1560116810119692326,-6.76363852108e-05,-0.060491601116,0.0014351355937,0.338668733835,-9.80456638336,0.58990418911
1560116810123606920,-6.76363852108e-05,-0.0563095384581,-1.75042805495e-05,0.130371600389,-9.82434463501,0.594705879688
1560116810127523661,0.00167769286782,-0.0558409914374,-1.75042805495e-05,0.0608379095793,-9.80447864532,0.576194882393
1560116810131439209,0.00167769286782,-0.0558409914374,-1.75042805495e-05,0.0999087840319,-9.86360168457,0.675379216671
1560116810135357618,0.00167769286782,-0.0540956631303,-0.00250605736699,0.197326734662,-9.76370334625,0.69243144989
1560116810139273405,0.00167769286782,-0.0540956631303,-0.00178028356381,0.395364791155,-9.74375534058,0.707787752151
1560116810143189907,0.00167769286782,-0.0558409914374,-0.000794775945089,0.433992922306,-9.634308815,0.666301548481
1560116810147106647,0.00014078535981,-0.0554241481733,-0.000225926029046,0.314290642738,-9.65376281738,0.718940854073
1560116810151024103,0.00167769286782,-0.0499616031352,-0.00176283356268,0.175859987736,-9.66386318207,0.69221663475
1560116810154940605,0.00124339761353,-0.0488596744835,-0.00132853830115,0.155666783452,-9.6636838913,0.712596893311
1560116810158856392,-6.76363852108e-05,-0.0502789068974,-1.75042805495e-05,0.176331654191,-9.72351551056,0.722515821457
1560116810162773848,-0.00181296560913,-0.0512650083268,0.00106782045123,0.255804747343,-9.72358608246,0.720736861229
1560116810166690588,-0.00181296560913,-0.053996067668,-1.75042805495e-05,0.316043674946,-9.78337192535,0.739733934402
1560116810170608044,-6.76363852108e-05,-0.050578234853,-1.75042805495e-05,0.256113916636,-9.78315639496,0.761003732681
1560116810174524546,-6.76363852108e-05,-0.0452429815619,-1.75042805495e-05,0.196362406015,-9.72361373901,0.712103247643
1560116810178441525,-6.76363852108e-05,-0.0436236858368,-1.75042805495e-05,0.195235580206,-9.68344211578,0.741742730141
1560116810182358980,-0.00181296560913,-0.0443293329198,-0.00211565689237,0.234977394342,-9.66367340088,0.720785796642
1560116810186274767,-0.00448829479037,-0.0484520100532,-0.00350816268474,0.254195779562,-9.6633682251,0.760212182999
1560116810190192223,-0.00530362408608,-0.0477025475448,-0.00118427038758,0.255160093307,-9.70345973969,0.740540504456
1560116810194107771,-0.00530362408608,-0.0438055844344,-1.75042805495e-05,0.255788952112,-9.782995224,0.780939340591
1560116810198024511,-0.00530362408608,-0.0409364417772,-1.75042805495e-05,0.195864453912,-9.76297664642,0.782141685486
1560116810201941013,-0.00704895332456,-0.0401762545343,-1.75042805495e-05,0.215402513742,-9.78263664246,0.82170009613
1560116810205857754,-0.00704895332456,-0.0418783575296,-1.75042805495e-05,0.214768394828,-9.72290420532,0.801368713379
1560116810209774256,-0.00852519487447,-0.0436236858368,-1.75042805495e-05,0.195880234241,-9.70356750488,0.721939086914
1560116810213690758,-0.00579457067336,-0.0411149218731,-0.00127188696312,0.214134246111,-9.66317176819,0.781037330627
1560116810217607498,-0.00530362408608,-0.0383877009153,-0.00176283356268,0.233522981405,-9.63324165344,0.780394673347
1560116810221524954,-0.00678404634111,-0.0383877009153,-0.00176283356268,0.254520714283,-9.66353034973,0.740276575089
1560116810225441694,-0.00951511787895,-0.0394121942912,-0.00176283356268,0.295216321945,-9.72346019745,0.73978292942
1560116810229358196,-0.0105396118015,-0.0366812760041,-0.00346925562842,0.31508988142,-9.70367431641,0.719270706177
1560116810233274937,-0.00959320648496,-0.0356959640714,-0.00445456800129,0.336084932089,-9.74386405945,0.68918633461
1560116810237192392,-0.00686208470961,-0.0331517122686,-0.00332129408226,0.335911929607,-9.78339004517,0.739289224148
1560116810241108894,-0.00530362408608,-0.0331517122686,-0.000590582994252,0.296500355005,-9.7835149765,0.720243096352
1560116810245025635,-0.00746180052724,-0.0314063802361,-1.75042805495e-05,0.197337254882,-9.72409820557,0.652296423912
1560116810248942137,-0.0101924408202,-0.0300082242171,-1.75042805495e-05,0.19864231348,-9.70494174957,0.552486538887
1560116810252858877,-0.00990104859148,-0.0296610537916,-1.75042805495e-05,0.198312103748,-9.72458362579,0.592489719391
1560116810256775379,-0.00879428256303,-0.0296610537916,-1.75042805495e-05,0.278099626303,-9.76442146301,0.610910177231
1560116810260691881,-0.00965821802549,-0.0305249878711,-1.75042805495e-05,0.398284047842,-9.76501274109,0.548434972763
1560116810264608622,-0.0105396118015,-0.0314063802361,-1.75042805495e-05,0.360161781311,-9.80539131165,0.489781498909
1560116810268525124,-0.00945023507814,-0.0314063802361,-1.75042805495e-05,0.300541192293,-9.86474895477,0.551318287849
1560116810272442818,-0.00846389646441,-0.0279157254845,-1.75042805495e-05,0.221068099141,-9.86467838287,0.553097248077
1560116810276359320,-0.0057332636005,-0.0266000364625,-1.75042805495e-05,0.261140108109,-9.82526779175,0.492137104273
1560116810280275822,-0.00474800476073,-0.0233138283568,-1.75042805495e-05,0.241596788168,-9.82541179657,0.47264623642
1560116810284193516,-0.00355829484761,-0.0178509550152,-1.75042805495e-05,0.300556957722,-9.80533790588,0.491115689278
1560116810288110018,-0.00530362408608,-0.0156984198838,-1.75042805495e-05,0.30056220293,-9.78553581238,0.471048176289
1560116810292026758,-0.00530362408608,-0.015720699923,-1.75042805495e-05,0.280368983746,-9.78535652161,0.491428524256
1560116810295943260,-0.00530362408608,-0.0174437500536,-1.75042805495e-05,0.240632474422,-9.78532028198,0.49231800437
1560116810299860001,-0.00355829484761,-0.0191890802234,-1.75042805495e-05,0.260490208864,-9.82494449615,0.532008290291
1560116810303775549,-0.00232557381209,-0.0191890802234,-1.75042805495e-05,0.241581052542,-9.88482093811,0.532848834991
1560116810307692051,-0.00181296560913,-0.0187164212402,-1.75042805495e-05,0.241266578436,-9.84505367279,0.512649416924
1560116810311609745,-0.00181296560913,-0.0174437500536,-1.75042805495e-05,0.239977270365,-9.80480003357,0.552256703377
1560116810315526485,-6.76363852108e-05,-0.0156984198838,-1.75042805495e-05,0.258875966072,-9.78453063965,0.591551184654
1560116810319441795,-6.76363852108e-05,-0.0140152528909,-1.75042805495e-05,0.258551031351,-9.78436851501,0.611486792564
1560116810323358536,0.000856322237026,-0.0122077623382,-1.75042805495e-05,0.197662204504,-9.7242603302,0.632360816002
1560116810327275038,0.00184146864193,-0.0102986573256,-1.75042805495e-05,0.216880574822,-9.72395515442,0.671787261963
1560116810331190825,0.00457172911629,-0.00756839685127,-1.75042805495e-05,0.216068193316,-9.72355079651,0.721626281738
1560116810335107327,0.00516835134476,-0.0069717746228,-1.75042805495e-05,0.236256182194,-9.74353218079,0.721313476562
1560116810339023829,0.00379413505491,-0.00834599091265,-1.75042805495e-05,0.236245661974,-9.78313827515,0.761448502541
1560116810342940569,0.00342302210629,-0.0110767398392,0.000596802443511,0.214763134718,-9.7427072525,0.821436166763
1560116810346857071,0.00342302210629,-0.0106081957281,0.00172782491427,0.214443445206,-9.72274303436,0.821304321289
1560116810350773573,0.00426278098699,-0.0061320157421,-1.75042805495e-05,0.214448705316,-9.70293903351,0.801236748695
1560116810354690313,0.00334291132324,-0.00348111591302,-0.00168272277763,0.154204502702,-9.66295623779,0.802307128906
1560116810358606815,0.000612239194887,-0.00348111591302,-1.75042805495e-05,0.15387955308,-9.66279506683,0.822242736816
1560116810362523794,-6.76363852108e-05,-0.0075829801797,-0.000323107066647,0.173742547631,-9.68261623383,0.841865420341
1560116810366440296,-6.76363852108e-05,-0.0117538900457,-0.00176283356268,0.213484346867,-9.6628484726,0.820908546448
1560116810370356798,-6.76363852108e-05,-0.0116765320925,-1.75042805495e-05,0.173412367702,-9.70225715637,0.881868600845
1560116810374273539,-0.00158443269204,-0.00894563678028,-1.75042805495e-05,0.173742547631,-9.68261623383,0.841865420341
1560116810378190041,-0.00355829484761,-0.00772877111343,-1.75042805495e-05,0.174376696348,-9.74234867096,0.862196803093
1560116810382105827,-0.00355829484761,-0.00871710386127,-1.75042805495e-05,0.214123755693,-9.70277786255,0.821172356606
1560116810386022329,-0.00355829484761,-0.00773521068671,-1.75042805495e-05,0.214768394828,-9.72290420532,0.801368713379
1560116810389937639,-0.00530362408608,-0.00871710386127,-0.00154186182611,0.155808225274,-9.74297714233,0.782899141312
1560116810393854380,-0.00409708336031,-0.00871710386127,-1.75042805495e-05,0.175367295742,-9.68342494965,0.7421875
1560116810397769928,-0.00355829484761,-0.00871710386127,0.00172782491427,0.176331654191,-9.72351551056,0.722515821457
1560116810401686430,-0.00498970779178,-0.00871710386127,0.00172782491427,0.176331654191,-9.72351551056,0.722515821457
1560116810405603170,-0.00355829484761,-0.00804570847749,-1.75042805495e-05,0.157595455647,-9.7438659668,0.673253417015
1560116810409519672,-0.00355829484761,-0.00531503313007,-1.75042805495e-05,0.157915145159,-9.76383018494,0.673385381699
1560116810413436413,-0.00445530877535,-0.00702047323981,-1.75042805495e-05,0.157920405269,-9.74402713776,0.65331786871
1560116810417352915,-0.005440910394,-0.0123450486461,-1.75042805495e-05,0.178742483258,-9.82374286652,0.673336386681
1560116810421269417,-0.00704895332456,-0.01283054801,-1.75042805495e-05,0.198935702443,-9.82392120361,0.65295612812
1560116810425186396,-0.00494082395593,-0.0139530915767,-1.75042805495e-05,0.159849062562,-9.82420921326,0.613974332809
1560116810429102898,-0.00355829484761,-0.0153010977358,-1.75042805495e-05,0.13869151473,-9.7839384079,0.654026448727
1560116810433019400,-0.00355829484761,-0.0156984198838,-1.75042805495e-05,0.138371825218,-9.76397323608,0.653894543648
1560116810436934948,-0.00355829484761,-0.0156984198838,-0.00159064392819,0.128117993474,-9.74400043488,0.653984963894
1560116810440851450,-0.00355829484761,-0.0156984198838,-0.00176283356268,0.128442943096,-9.74416255951,0.634049355984
1560116810444769382,-0.00530362408608,-0.0157529300843,-1.75042805495e-05,0.129412531853,-9.76445007324,0.594310104847
1560116810448686838,-0.00426327694701,-0.0174437500536,-1.75042805495e-05,0.129412531853,-9.76445007324,0.594310104847
1560116810452604532,-0.00153180405356,-0.0197514030392,-1.75042805495e-05,0.128757372499,-9.78392982483,0.654248833656
1560116810456521988,-6.76363852108e-05,-0.0239469378047,-1.75042805495e-05,0.13869151473,-9.7839384079,0.654026448727
1560116810460438728,-6.76363852108e-05,-0.0244250670075,-0.00176283356268,0.138371825218,-9.76397323608,0.653894543648
1560116810464356184,-6.76363852108e-05,-0.0229316109457,-0.00325628872794,0.158884733915,-9.78411865234,0.633646130562
1560116810468272686,-6.76363852108e-05,-0.0234131512739,-0.00102941949952,0.157102763653,-9.76342582703,0.723224401474
1560116810472189426,-6.76363852108e-05,-0.0244250670075,-1.75042805495e-05,0.157270506024,-9.74370384216,0.693189024925
1560116810476105928,-0.0010266446828,-0.0253840758249,-1.75042805495e-05,0.176651343703,-9.7434797287,0.722647666931
1560116810480022669,-0.00181296560913,-0.0281151534579,-1.75042805495e-05,0.175372555852,-9.66362094879,0.722120046616
1560116810483939171,-0.000628296235285,-0.0308457212789,-1.75042805495e-05,0.156138435006,-9.72333621979,0.742896080017
1560116810487855673,-6.76363852108e-05,-0.0314063802361,-1.75042805495e-05,0.134975627065,-9.70286750793,0.803015708923
1560116810491770506,-6.76363852108e-05,-0.0314063802361,-1.75042805495e-05,0.134645417333,-9.72250938416,0.843018770218
1560116810495688915,-6.76363852108e-05,-0.0320568265454,-1.75042805495e-05,0.154828116298,-9.76229476929,0.862773537636
1560116810499605656,-6.76363852108e-05,-0.0347875212022,-1.75042805495e-05,0.175356805325,-9.72303104401,0.782322525978
1560116810503523111,-0.000944372865503,-0.0331517122686,-1.75042805495e-05,0.175021335483,-9.76247406006,0.842393159866
1560116810507440805,-0.0019307939022,-0.0315242087178,-0.00176283356268,0.213793545961,-9.72241973877,0.8611754179
1560116810511357307,-0.00355829484761,-0.0342547422348,-0.000659802980248,0.193600326777,-9.72223949432,0.88155579567
1560116810515273809,-0.00390127548191,-0.0366423688829,-1.75042805495e-05,0.193605586886,-9.70243644714,0.861488223076
1560116810519191742,-0.00530362408608,-0.0379716865002,-1.75042805495e-05,0.194575175643,-9.72272491455,0.821748971939
1560116810523108244,-0.0058732123138,-0.0378181117758,0.0011582367008,0.174381956458,-9.72254562378,0.842129349709
1560116810527029753,-0.00704895332456,-0.0366423688829,-1.75042805495e-05,0.135284796357,-9.76243782043,0.843282580376
1560116810530947447,-0.00530362408608,-0.039184054835,-0.000966479198124,0.155478015542,-9.76261806488,0.822902321815
1560116810534863949,-0.00530362408608,-0.0419146040634,-1.75042805495e-05,0.156127914786,-9.76294136047,0.783031105995
1560116810538780451,-0.00530362408608,-0.0446459095098,-1.75042805495e-05,0.156777814031,-9.76326465607,0.743159890175
1560116810542699337,-0.00530362408608,-0.0436236858368,-0.00028110704841,0.135945215821,-9.72315597534,0.763276457787
1560116810546615839,-0.0065526395076,-0.0436236858368,-0.00301184890089,0.136909544468,-9.76324653625,0.743604660034
1560116810550532579,-0.00656012193992,-0.0458578463111,-0.00127400216581,0.137716665864,-9.78345394135,0.713833212852
1560116810554450035,-0.00530362408608,-0.0471143461764,-1.75042805495e-05,0.177788674831,-9.74404525757,0.652873158455
1560116810558365583,-0.00704895332456,-0.0471143461764,-1.75042805495e-05,0.197976633906,-9.76402664185,0.652560353279
1560116810562283278,-0.00534818414051,-0.0488151144529,-1.75042805495e-05,0.237702637911,-9.80366802216,0.691805839539
1560116810566199780,-0.00530362408608,-0.0479187058552,-0.000958473434515,0.19828055799,-9.84340190887,0.712894797325
1560116810570116520,-0.00512229314279,-0.0434423549903,-0.00176283356268,0.1790779531,-9.78429794312,0.613265752792
1560116810574033976,-0.00239102880475,-0.0430456229496,-0.00176283356268,0.15952937305,-9.80424404144,0.613842368126
1560116810577950716,-0.00181296560913,-0.0457763749806,-0.00310080252733,0.178422793746,-9.8037776947,0.673204481602
1560116810581867218,-0.000420291769465,-0.0485070192845,-0.00176283356268,0.196514353156,-9.76329994202,0.742270469666
1560116810585783720,-6.76363852108e-05,-0.0452161064756,-0.00176283356268,0.217027261853,-9.7834444046,0.72202205658
1560116810589700460,-6.76363852108e-05,-0.0386414286421,-0.0033812987621,0.19715899229,-9.78342628479,0.722466826439
1560116810593616962,-6.76363852108e-05,-0.0366423688829,-0.00350816268474,0.176646083593,-9.76328277588,0.742715239525
1560116810597533703,3.07951969688e-05,-0.0368392321507,-0.00176283356268,0.175671234727,-9.76279735565,0.802521944046
1560116810601449251,0.000594465529056,-0.0412162559742,-0.00176283356268,0.214107975364,-9.76218605042,0.881374835968
1560116810605365753,-6.76363852108e-05,-0.0433002494497,-0.00350816268474,0.253524839878,-9.74225711823,0.880353450775
1560116810609282494,-6.76363852108e-05,-0.0392605303331,-0.00350816268474,0.292297035456,-9.70220184326,0.899135828018
1560116810613198042,-6.76363852108e-05,-0.0366423688829,-0.00296013876904,0.290677547455,-9.68159103394,0.978746175766
1560116810617114544,-6.76363852108e-05,-0.0366423688829,-0.00176283356268,0.251590877771,-9.68187904358,0.939764499664
1560116810621030331,-6.76363852108e-05,-0.0348970405757,-0.00176283356268,0.231717407703,-9.70166397095,0.960276722908
1560116810624946833,-0.00181296560913,-0.0331517122686,-0.00176283356268,0.290682792664,-9.66178798676,0.958678722382
1560116810628863573,-0.00181296560913,-0.0331517122686,-0.000763935422198,0.310865521431,-9.70157337189,0.97843337059
1560116810632780075,-0.00355829484761,-0.033390859564,-0.00152368613365,0.29132220149,-9.70171737671,0.958942532539
1560116810636696577,-0.00355829484761,-0.0348970405757,-1.75042805495e-05,0.270804017782,-9.70137691498,0.999258518219
1560116810640613317,-0.00530362408608,-0.0344324846821,-1.75042805495e-05,0.232362002134,-9.72179031372,0.940473079681
1560116810644529819,-0.00530362408608,-0.031702005167,-1.75042805495e-05,0.192300528288,-9.72159385681,0.961298108101
1560116810648445368,-0.00461436754755,-0.0314063802361,-1.75042805495e-05,0.252880185843,-9.72213172913,0.900157213211
1560116810652362108,-0.00355829484761,-0.0314063802361,-1.75042805495e-05,0.25256049633,-9.70216655731,0.900025248528
1560116810656278610,-0.00447310866444,-0.028746240463,-1.75042805495e-05,0.232692241669,-9.7021484375,0.900470018387
1560116810660194397,-0.00545790704089,-0.0279157254845,-1.75042805495e-05,0.193600326777,-9.72223949432,0.88155579567
1560116810664110899,-0.00704895332456,-0.0290553995295,-1.75042805495e-05,0.194900125265,-9.72288608551,0.801813364029
1560116810668028355,-0.00917485837213,-0.0296610537916,-1.75042805495e-05,0.234956383705,-9.7428855896,0.801055908203
1560116810671944141,-0.0105396118015,-0.0296610537916,-0.00138290776169,0.233661800623,-9.72243690491,0.860730648041
1560116810675860643,-0.00818895378651,-0.0255650680778,-1.75042805495e-05,0.234951078892,-9.76268863678,0.821123361588
1560116810679777384,-0.00704895332456,-0.0260162801019,-1.75042805495e-05,0.175351545215,-9.74283313751,0.802390098572
1560116810683693886,-0.00704895332456,-0.0279157254845,-1.75042805495e-05,0.195864453912,-9.76297664642,0.782141685486
1560116810687611341,-0.00704895332456,-0.0261703971773,-0.00183449535321,0.196194663644,-9.74333572388,0.742138504982
1560116810691528082,-0.00704895332456,-0.0261703971773,-0.00350816268474,0.215737983584,-9.74319171906,0.761629462242
1560116810695444584,-0.00704895332456,-0.0241274200251,-0.00350816268474,0.234636664391,-9.72292137146,0.80092394352
1560116810699361324,-0.00704895332456,-0.0213966372547,-0.00222506250262,0.256444126368,-9.76351451874,0.721000671387
1560116810703277826,-0.00704895332456,-0.0214574417077,-1.75042805495e-05,0.236738294363,-9.76357746124,0.711477637291
1560116810707194328,-0.00704895332456,-0.0226797368377,-1.75042805495e-05,0.237388193607,-9.76390075684,0.671606421471
1560116810711111069,-0.00779764025709,-0.0219310503047,-0.00251152044528,0.216870054603,-9.7635602951,0.711922347546
1560116810715027571,-0.0070602582405,-0.0192003851334,-0.00177413847787,0.216870054603,-9.7635602951,0.711922347546
1560116810718945265,-0.00781944559412,-0.0174437500536,-0.00078799656939,0.197321474552,-9.78350734711,0.712499022484
1560116810722861767,-0.00530362408608,-0.0174437500536,-1.75042805495e-05,0.276794523001,-9.78357887268,0.710720062256
1560116810726779461,-0.00650462866635,-0.0174437500536,-0.00121850889086,0.276312410831,-9.76353263855,0.720555901527
1560116810730695009,-0.00660838345926,-0.0183248897842,-0.00350816268474,0.276632070541,-9.78349781036,0.720687866211
1560116810734611511,-0.00530362408608,-0.0195084833654,-0.00208223685378,0.236575841904,-9.76349639893,0.721445441246
1560116810738528252,-0.00530362408608,-0.0178570561045,-0.00176283356268,0.196189403534,-9.76313781738,0.762206077576
1560116810742444754,-0.00530362408608,-0.0140473211206,-0.00176283356268,0.236256182194,-9.74353218079,0.721313476562
1560116810746360302,-0.00355829484761,-0.0139530915767,-0.00176283356268,0.215732723475,-9.76299476624,0.781696915627
1560116810750277042,-0.00342732507687,-0.0122077623382,-0.00163186378867,0.255474537611,-9.743227005,0.760739922523
1560116810754193544,-0.000696633600023,-0.0122077623382,-1.75042805495e-05,0.255149573088,-9.74306583405,0.780675530434
1560116810758110285,-0.00252665447678,-0.0101055886659,-1.75042805495e-05,0.235600978136,-9.76301193237,0.781252145767
1560116810762025833,-0.00664525145565,-0.0073754764917,-0.00135913168368,0.254829883575,-9.72310161591,0.78054356575
1560116810765942335,-0.00414073609994,-0.00522644538432,-0.00118138955507,0.234636664391,-9.72292137146,0.80092394352
1560116810769858122,-0.000246640345906,-0.00522644538432,-1.75042805495e-05,0.235281318426,-9.74304771423,0.781120300293
1560116810773773670,-0.0026187446782,-0.0069717746228,-0.00176283356268,0.254499673843,-9.74274253845,0.820546746254
1560116810777690172,-0.00530362408608,-0.00692590212476,-1.75042805495e-05,0.214123755693,-9.70277786255,0.821172356606
1560116810781606913,-0.00427235314177,-0.00419517430244,-1.75042805495e-05,0.214443445206,-9.72274303436,0.821304321289
1560116810785523415,-0.00355829484761,-0.00348111591302,-1.75042805495e-05,0.235611498356,-9.72340679169,0.741117119789
1560116810789439917,-0.00355829484761,-0.00473780000662,-1.75042805495e-05,0.254510194063,-9.70313644409,0.780411720276
1560116810793356657,-0.00530362408608,-0.00746873078528,-1.75042805495e-05,0.233992040157,-9.70279502869,0.820727586746
1560116810797273159,-0.00382116681012,-0.00723464658531,-1.75042805495e-05,0.215737983584,-9.74319171906,0.761629462242
1560116810801188946,-0.00530362408608,-0.00624999951428,-1.75042805495e-05,0.214773654938,-9.70310115814,0.781301140785
1560116810805105448,-0.00530362408608,-0.0035186923831,-1.75042805495e-05,0.175356805325,-9.72303104401,0.782322525978
1560116810809020996,-0.00435681055835,-0.00173578679096,-1.75042805495e-05,0.196194663644,-9.74333572388,0.742138504982
1560116810812937737,-0.00199985269231,9.54246752372e-06,-1.75042805495e-05,0.216382622719,-9.76331806183,0.741825699806
1560116810816854239,-0.00473060055649,9.54246752372e-06,-1.75042805495e-05,0.217200264335,-9.74391937256,0.671919226646
1560116810820770741,-0.00530362408608,-0.00256083370315,-1.75042805495e-05,0.196682095528,-9.74357795715,0.712235152721
1560116810824687481,-0.00390546520532,-0.00522644538432,-0.00141566319628,0.197326734662,-9.76370334625,0.69243144989
1560116810828603983,-0.00530362408608,-0.00109781144069,-0.00350816268474,0.197326734662,-9.76370334625,0.69243144989
1560116810832520723,-0.00530362408608,0.00163304253629,-0.00350816268474,0.177788674831,-9.74404525757,0.652873158455
1560116810836436272,-0.00355829484761,0.000892266144894,-0.00264555719129,0.197971373796,-9.7838306427,0.672627806664
1560116810840352774,-0.00355829484761,-0.00183898111515,-0.00176283356268,0.177783414721,-9.76384830475,0.672940611839
1560116810844269514,-0.00355829484761,-0.00239271698992,-0.00176283356268,0.218164592981,-9.78400993347,0.652247488499
1560116810848186016,-0.00530362408608,9.54246752372e-06,-0.00317978057396,0.217839643359,-9.78384876251,0.672183036804
1560116810852102757,-0.00661752407942,9.54246752372e-06,-0.00176283356268,0.198301583529,-9.76418876648,0.632624745369
1560116810856019258,-0.00649482277811,-0.00173578679096,-0.00120870300238,0.177458465099,-9.76368618011,0.692876219749
1560116810859935760,-0.00530362408608,-0.00173578679096,-1.75042805495e-05,0.197651684284,-9.76386547089,0.672495901585
1560116810863851547,-0.00277932308477,-0.00251475850184,-1.75042805495e-05,0.177458465099,-9.76368618011,0.692876219749
1560116810867768049,-6.76363852108e-05,-0.00346216351418,-0.00178178596152,0.197651684284,-9.76386547089,0.672495901585
1560116810871684551,-0.00107192325317,-0.00173578679096,-0.00350816268474,0.197981894016,-9.74422454834,0.632492780685
1560116810875601292,-0.00181296560913,-0.00173578679096,-0.00176283356268,0.177138775587,-9.74372196198,0.692744255066
1560116810879517794,-0.00181296560913,-0.00173578679096,-0.000532742590811,0.197976633906,-9.76402664185,0.652560353279
1560116810883433580,-0.00355829484761,-0.00348111591302,-1.75042805495e-05,0.177463725209,-9.74388408661,0.67280870676
1560116810887350082,-0.00355829484761,-0.0020264534315,-0.00147216689548,0.176813825965,-9.74356079102,0.712679862976
1560116810891266584,-0.00530362408608,9.54246752372e-06,-0.00106766154802,0.176494136453,-9.72359657288,0.712548017502
1560116810895182371,-0.00530362408608,9.54246752372e-06,-1.75042805495e-05,0.156463384628,-9.72349739075,0.722960472107
1560116810899098873,-0.00263817840805,-0.00265590316915,-1.75042805495e-05,0.15662586689,-9.72357845306,0.712992668152
1560116810903014421,-0.00181296560913,-0.00348111591302,-1.75042805495e-05,0.156306177378,-9.70361328125,0.712860822678
1560116810906932116,-0.00181296560913,-0.00348111591302,-1.75042805495e-05,0.156133174896,-9.74313831329,0.762963652611
1560116810910848618,-0.00181296560913,-0.00561198750702,-1.75042805495e-05,0.175681754947,-9.72319221497,0.762386918068
1560116810914765358,-0.00181296560913,-0.00834280776632,-1.75042805495e-05,0.176006704569,-9.7233543396,0.742451310158
1560116810918681860,-0.00242421338479,-0.00871710386127,-0.000628752071498,0.176011964679,-9.70355033875,0.722383856773
1560116810922597408,-0.00355829484761,-0.00871710386127,-0.00176283356268,0.156143695116,-9.70353221893,0.722828626633
1560116810926514149,-0.00530362408608,-0.00871710386127,-0.00176283356268,0.176494136453,-9.72359657288,0.712548017502
1560116810930430651,-0.00530362408608,-0.00681980345921,-0.00168684798405,0.176494136453,-9.72359657288,0.712548017502
1560116810934347391,-0.00530362408608,-0.00241939216713,-1.75042805495e-05,0.176006704569,-9.7233543396,0.742451310158
1560116810938263893,-0.00704895332456,-0.00203756579227,-1.75042805495e-05,0.196199923754,-9.7235326767,0.722071051598
1560116810942181349,-0.00704895332456,-0.00348111591302,-1.75042805495e-05,0.19701230526,-9.72393703461,0.672232031822
1560116810946098089,-0.00704895332456,-0.00522644538432,-0.00123451524538,0.215910986066,-9.70366668701,0.711526572704
1560116810950014591,-0.00704895332456,-0.00673958471214,-1.75042805495e-05,0.196367666125,-9.70380973816,0.692035675049
1560116810953931332,-0.00629515977099,-0.00871710386127,-0.000771297852968,0.217195004225,-9.76372146606,0.691986739635
1560116810957847834,-0.00704263743218,-0.0104561172074,-0.00176283356268,0.217525213957,-9.74408054352,0.651983618736
1560116810961763382,-0.00530362408608,-0.0122077623382,-0.00176283356268,0.217860683799,-9.70463657379,0.591912984848
1560116810965680122,-0.00530362408608,-0.0119888692632,-0.00154394048222,0.217850163579,-9.74424266815,0.632048010826
1560116810969595671,-0.00410011495129,-0.00925892396496,-0.00122101344544,0.238363057375,-9.76438522339,0.61179959774
1560116810973512173,-0.00400156891855,-0.0069717746228,-0.00220610760406,0.218494802713,-9.76436805725,0.612244367599
1560116810977427959,-0.00530362408608,-0.0069717746228,-0.00207995490339,0.219139441848,-9.7844953537,0.592440724373
1560116810981344461,-0.00530362408608,-0.0069717746228,-1.75042805495e-05,0.21945913136,-9.80445957184,0.592572629452
1560116810985260010,-0.00695684004314,-0.00531855866574,-1.75042805495e-05,0.199926331639,-9.76499652863,0.532946705818
1560116810989176750,-0.00619690420835,-0.00875833486733,-1.75042805495e-05,0.219794601202,-9.76501464844,0.532501995564
1560116810993093252,-0.00718213485822,-0.0122077623382,-1.75042805495e-05,0.23901823163,-9.74490642548,0.551860928535
1560116810997009993,-0.00879428256303,-0.0110889700162,-1.75042805495e-05,0.219144701958,-9.76469135284,0.572373151779
1560116811000926495,-0.0105396118015,-0.0104624330997,-1.75042805495e-05,0.219789341092,-9.78481864929,0.552569508553
1560116811004842043,-0.00919598905472,-0.00777518760617,-0.00136112706094,0.219794601202,-9.76501464844,0.532501995564
1560116811008758783,-0.00413641371329,-0.00231390557246,-0.00117922836169,0.21946965158,-9.76485347748,0.552437603474
1560116811012675285,0.00132619872869,9.54246752372e-06,-1.75042805495e-05,0.239007711411,-9.78451251984,0.591995954514
1560116811016591787,0.00516835134476,9.54246752372e-06,-1.75042805495e-05,0.218819752336,-9.76453018188,0.592308759689
1560116811020508528,0.00162814442451,-0.00353066436252,-0.00171328511855,0.178758263588,-9.7643327713,0.613133847713
1560116811024424076,-6.76363852108e-05,-0.00626081284703,-1.75042805495e-05,0.218494802713,-9.76436805725,0.612244367599
1560116811028340816,-0.00181296560913,-0.00522644538432,-1.75042805495e-05,0.217850163579,-9.74424266815,0.632048010826
1560116811032257318,-0.00307312054519,-0.00270613542816,-1.75042805495e-05,0.197981894016,-9.74422454834,0.632492780685
1560116811036173820,-0.00181296560913,-0.00173578679096,-1.75042805495e-05,0.197651684284,-9.76386547089,0.672495901585
1560116811040090561,-0.00329834847216,-0.00322116955491,-1.75042805495e-05,0.217200264335,-9.74391937256,0.671919226646
1560116811044007063,-0.00530362408608,-0.00275562668143,-1.75042805495e-05,0.217519953847,-9.7638835907,0.67205119133
1560116811047922611,-0.00359321147471,-0.00173578679096,-1.75042805495e-05,0.196839302778,-9.76346111298,0.722334861755
1560116811051839352,-0.00260789909924,-0.00522644538432,-1.75042805495e-05,0.236748814583,-9.72397232056,0.671342611313
1560116811055755854,-0.00200334449449,-0.00503606647357,0.00172782491427,0.216068193316,-9.72355079651,0.721626281738
1560116811059672594,-0.00355829484761,-0.00112919248367,0.00055186319653,0.175687015057,-9.70338916779,0.742319464684
1560116811063589096,-0.00530362408608,9.54246752372e-06,-1.75042805495e-05,0.195230334997,-9.70324420929,0.761810302734
1560116811067504644,-0.00670430958733,9.54246752372e-06,-1.75042805495e-05,0.215743243694,-9.72338962555,0.741561889648
1560116811071421385,-0.00704895332456,-0.00063125963658,-1.75042805495e-05,0.215910986066,-9.70366668701,0.711526572704
1560116811075337887,-0.00704895332456,-0.00336194632509,-1.75042805495e-05,0.196362406015,-9.72361373901,0.712103247643
1560116811079254627,-0.00618219136434,-0.00261435401061,-1.75042805495e-05,0.215748503804,-9.70358562469,0.721494376659
1560116811083171129,-0.00530362408608,9.54246752372e-06,-0.00165613928016,0.216235935688,-9.70382785797,0.691590964794
1560116811087088585,-0.00639618018839,9.54246752372e-06,-1.75042805495e-05,0.236256182194,-9.74353218079,0.721313476562
1560116811091005325,-0.00738165784389,9.54246752372e-06,-1.75042805495e-05,0.216880574822,-9.72395515442,0.671787261963
1560116811094920874,-0.00747639099715,9.54246752372e-06,-1.75042805495e-05,0.196519613266,-9.74349689484,0.722202956676
1560116811098838568,-0.00418640010587,0.00231348371335,-1.75042805495e-05,0.197971373796,-9.7838306427,0.672627806664
1560116811102754116,-0.000269889616694,0.00504327684033,-1.75042805495e-05,0.197656944394,-9.74406242371,0.652428388596
1560116811106670618,-0.000850965279553,0.00524553004652,-1.75042805495e-05,0.237393498421,-9.74409770966,0.651538908482
1560116811110587358,-0.00532738868336,0.00173110708898,-1.75042805495e-05,0.197981894016,-9.74422454834,0.632492780685
1560116811114503860,-0.00604003130464,9.54246752372e-06,-1.75042805495e-05,0.197981894016,-9.74422454834,0.632492780685
1560116811118419409,-0.00505540754427,0.00200308824436,-1.75042805495e-05,0.198956742883,-9.74470901489,0.572685956955
1560116811122335196,-0.0047913773294,0.00226711847683,0.0012155781704,0.199590861797,-9.80444145203,0.593017339706
1560116811126251698,-0.00577693431261,9.54246752372e-06,-1.75042805495e-05,0.218819752336,-9.76453018188,0.592308759689
1560116811130168438,-0.00559010598729,9.54246752372e-06,-1.75042805495e-05,0.199921071529,-9.78480052948,0.553014278412
1560116811134084940,-0.00460446200828,9.54246752372e-06,-1.75042805495e-05,0.200246021152,-9.78496170044,0.533078670502
1560116811138001442,-0.00355829484761,0.00169402303936,-1.75042805495e-05,0.199915811419,-9.80460262299,0.573081731796
1560116811141918182,-0.00530362408608,0.00175487168599,-0.00176283356268,0.199601382017,-9.76483535767,0.552882313728
1560116811145834684,-0.00546806446724,0.00191931207812,-0.00176283356268,0.199596121907,-9.78463840485,0.572949826717
1560116811149751425,-0.00589880771166,0.00350020104088,-0.00176283356268,0.179733112454,-9.76481819153,0.553327083588
1560116811153666973,-0.0049144245316,0.00175487168599,-0.00176283356268,0.180052801967,-9.78478336334,0.553458988667
1560116811157583475,-0.00355829484761,0.00312991934941,-0.00176283356268,0.199926331639,-9.76499652863,0.532946705818
1560116811161499262,-0.00355829484761,0.00350020104088,-1.75042805495e-05,0.198306843638,-9.7443857193,0.612557172775
1560116811165415764,-0.00355829484761,0.00350020104088,-0.00161708484406,0.178763523698,-9.7445306778,0.593066334724
1560116811169332266,-0.00265280465429,0.00175487168599,-0.00176283356268,0.198626533151,-9.76434993744,0.612689137459
1560116811173248053,-0.00355829484761,9.54246752372e-06,-1.75042805495e-05,0.17908847332,-9.74469184875,0.573130726814
1560116811177164555,-0.00355829484761,9.54246752372e-06,-1.75042805495e-05,0.198306843638,-9.7443857193,0.612557172775
1560116811181081057,-0.00150836009248,0.000314147983222,-0.000322109807359,0.177793934941,-9.72424316406,0.632805585861
1560116811184997797,-6.76363852108e-05,0.00433636958963,-0.00176283356268,0.197981894016,-9.74422454834,0.632492780685
1560116811188913345,-0.00059745034769,0.0064610453181,-0.00350816268474,0.197987154126,-9.72442150116,0.612425208092
1560116811192828894,-0.00181296560913,0.00524553004652,-0.00199361538046,0.217200264335,-9.74391937256,0.671919226646
1560116811196745634,-0.00181296560913,0.00524553004652,-1.75042805495e-05,0.19700704515,-9.74373912811,0.692299544811
1560116811200661182,-0.00181296560913,0.0069845433901,-1.75042805495e-05,0.197656944394,-9.74406242371,0.652428388596
1560116811204577923,-0.00104699527614,0.00503214161746,-1.75042805495e-05,0.215748503804,-9.70358562469,0.721494376659
1560116811208493471,-0.00355829484761,9.54246752372e-06,-1.75042805495e-05,0.19701230526,-9.72393703461,0.672232031822
1560116811212409973,-0.00476278968351,-0.00119495238219,-1.75042805495e-05,0.197662204504,-9.7242603302,0.632360816002
1560116811216325760,-0.00355829484761,9.54246752372e-06,-1.75042805495e-05,0.19572301209,-9.68368434906,0.71183937788
1560116811220242262,-0.00212925530846,-0.00141949708801,-1.75042805495e-05,0.176494136453,-9.72359657288,0.712548017502
1560116811224158764,-0.00355829484761,9.54246752372e-06,-1.75042805495e-05,0.176819086075,-9.72375774384,0.692612409592
1560116811228074551,-0.00521254344407,9.54246752372e-06,-1.75042805495e-05,0.196042716503,-9.7036485672,0.711971282959
1560116811231990099,-0.00794223344682,-0.00173578679096,-1.75042805495e-05,0.217855423689,-9.72443962097,0.611980557442
1560116811235906601,-0.00879428256303,-0.00348111591302,-1.75042805495e-05,0.178438574076,-9.74436855316,0.613001942635
1560116811239823341,-0.00767506425475,-0.00236189767939,-1.75042805495e-05,0.197981894016,-9.74422454834,0.632492780685
1560116811243739843,-0.00704895332456,9.54246752372e-06,-0.00140369190053,0.218180373311,-9.72460174561,0.592044949532
1560116811247656345,-0.00704895332456,0.00135414853556,-1.75042805495e-05,0.198312103748,-9.72458362579,0.592489719391
1560116811251572132,-0.00879428256303,0.00233930819321,-0.00060194076341,0.199921071529,-9.78480052948,0.553014278412
1560116811255488634,-0.00565465120737,0.00193038525834,-0.000193017845582,0.179408162832,-9.76465606689,0.573262691498
1560116811259403944,-0.00530362408608,0.000945780785245,-1.75042805495e-05,0.17909373343,-9.72488975525,0.55306327343
1560116811263320684,-0.00535234054975,0.00175487168599,-0.00181155002309,0.200240761042,-9.80476474762,0.553146183491
1560116811267236233,-0.00704895332456,0.00175487168599,-0.00247462617708,0.200576230884,-9.76531982422,0.493075549603
1560116811271151781,-0.00530362408608,0.00175487168599,-0.00176283356268,0.200570970774,-9.78512382507,0.513143062592
1560116811275068521,-0.00530362408608,0.00175487168599,-0.00176283356268,0.199921071529,-9.78480052948,0.553014278412
1560116811278984070,-0.00530362408608,0.00125706128786,-1.75042805495e-05,0.220764189959,-9.78530311584,0.492762714624
1560116811282900810,-0.00530362408608,9.54246752372e-06,-1.75042805495e-05,0.200251281261,-9.76515865326,0.513011157513
1560116811286816359,-0.00704895332456,0.0024779774516,-1.75042805495e-05,0.200576230884,-9.76531982422,0.493075549603
1560116811290732861,-0.0053405211816,0.00179176878396,-1.75042805495e-05,0.200901180506,-9.76548194885,0.473139941692
1560116811294649601,-0.00355829484761,0.000806258371848,-1.75042805495e-05,0.201220870018,-9.78544712067,0.473271876574
1560116811298566103,-0.0020017579884,9.54246752372e-06,-1.75042805495e-05,0.201215609908,-9.80524921417,0.493339389563
1560116811302482605,-0.00473232284736,9.54246752372e-06,-1.75042805495e-05,0.200901180506,-9.76548194885,0.473139941692
1560116811306400299,-0.00488878236488,9.54246752372e-06,-1.75042805495e-05,0.220769450068,-9.76550006866,0.472695201635
1560116811310316801,-0.00215814246219,9.54246752372e-06,-1.75042805495e-05,0.200901180506,-9.76548194885,0.473139941692
1560116811314232588,-6.76363852108e-05,0.000649435772048,0.000622389015305,0.220449760556,-9.74553585052,0.472563266754
1560116811318149090,-0.00169293072108,0.000129577355206,0.000102530605507,0.199606642127,-9.74503231049,0.532814860344
1560116811322065592,-0.00442356056728,9.54246752372e-06,-0.000882770021868,0.219799861312,-9.74521255493,0.512434482574
1560116811325982332,-0.00530362408608,0.000114780927227,-0.00176283356268,0.198962002993,-9.72490692139,0.552618503571
1560116811329897881,-0.0042136449296,0.00175487168599,-0.00176283356268,0.219149962068,-9.74488925934,0.552305698395
1560116811333814621,-0.00148245371692,0.002085383603,-1.75042805495e-05,0.199921071529,-9.78480052948,0.553014278412
1560116811337731123,-6.76363852108e-05,0.00350020104088,-1.75042805495e-05,0.218180373311,-9.72460174561,0.592044949532
1560116811341646671,-0.00181296560913,0.00405566139373,-1.75042805495e-05,0.218185633421,-9.70479774475,0.571977376938
1560116811345564365,-0.00181296560913,0.00524553004652,-0.00155917283303,0.199276432395,-9.76467323303,0.572817921638
1560116811349480867,-0.00259459750724,0.00524553004652,-1.75042805495e-05,0.178124144673,-9.70460128784,0.592802524567
1560116811353397608,-0.00530362408608,0.00524553004652,-1.75042805495e-05,0.197997659445,-9.6848154068,0.572290182114
1560116811357314110,-0.00530362408608,0.00524553004652,-1.75042805495e-05,0.19863705337,-9.72474479675,0.572554111481
1560116811361230612,-0.00355829484761,0.006990859285,-0.00176283356268,0.218830272555,-9.7249250412,0.552173733711
1560116811365147352,-0.00479101539057,0.00575813874204,-0.00176283356268,0.197992414236,-9.70461845398,0.592357754707
1560116811369063854,-0.00483096535506,0.00477287137855,-0.00176283356268,0.198312103748,-9.72458362579,0.592489719391
1560116811372980595,-0.00355829484761,0.00350020104088,-0.000304707991218,0.218835532665,-9.70512104034,0.532106220722
1560116811376897335,-0.00425679193771,0.00664252422672,-1.75042805495e-05,0.199281692505,-9.74487113953,0.552750408649
1560116811380813837,-0.00698759956362,0.00705221304593,-1.75042805495e-05,0.17909373343,-9.72488975525,0.55306327343
1560116811384730577,-0.00971840715498,0.00432140557785,-0.000941628895614,0.180707961321,-9.76530265808,0.49352028966
1560116811388647079,-0.00863034150889,0.00175487168599,-0.00176283356268,0.178774043918,-9.70492458344,0.552931308746
1560116811392562389,-0.00590041314835,0.00175487168599,-0.00176283356268,0.180707961321,-9.76530265808,0.49352028966
1560116811396479130,-0.00530362408608,9.54246752372e-06,-1.75042805495e-05,0.200901180506,-9.76548194885,0.473139941692
1560116811400395870,-0.00530362408608,9.54246752372e-06,-1.75042805495e-05,0.181682795286,-9.76578712463,0.433713525534
1560116811404312611,-0.00704895332456,0.000624015406975,-1.75042805495e-05,0.181352600455,-9.78542995453,0.473716616631
1560116811408229113,-0.00544922010306,0.00335460501419,-0.00161723754206,0.162134230137,-9.78573417664,0.43429017067
1560116811412145615,-0.00530362408608,0.00265987546106,-0.00176283356268,0.181363105774,-9.74582290649,0.433581590652
1560116811416062355,-0.00704895332456,0.00175487168599,-0.00176283356268,0.182327449322,-9.78591442108,0.413909852505
1560116811419978857,-0.00598307425666,0.00175487168599,-0.000696954468127,0.182327449322,-9.78591442108,0.413909852505
1560116811423895597,-0.00355829484761,0.00175487168599,-1.75042805495e-05,0.162459179759,-9.78589630127,0.414354562759
1560116811427812099,-0.00355829484761,0.00175487168599,-1.75042805495e-05,0.202190458775,-9.80573368073,0.433532625437
1560116811431728601,-0.00408952509335,9.54246752372e-06,-0.00107996474989,0.161814540625,-9.76576900482,0.434158265591
1560116811435645342,-0.00378682776661,9.54246752372e-06,-0.00350816268474,0.222388938069,-9.78611087799,0.393084764481
1560116811439561844,-0.00355829484761,0.00175487168599,-0.00350816268474,0.181357860565,-9.76562595367,0.453649103642
1560116811443477631,-0.00355829484761,0.00349687591327,-0.00350816268474,0.201870769262,-9.78576946259,0.433400690556
1560116811447394133,-0.00355829484761,0.00350020104088,-0.000780940058536,0.20155107975,-9.76580429077,0.433268785477
1560116811451310635,-0.00333649113733,9.54246752372e-06,-1.75042805495e-05,0.200895920396,-9.78528499603,0.493207454681
1560116811455227375,-0.00181296560913,-0.0011978291582,-1.75042805495e-05,0.200906440616,-9.74567890167,0.453072428703
1560116811459143877,-0.000515062981305,-0.00303368934304,-0.000464930891566,0.220769450068,-9.76550006866,0.472695201635
1560116811463060379,-0.00181296560913,-0.00173578679096,-0.00176283356268,0.220774710178,-9.74569702148,0.452627718449
1560116811466977119,-0.00181296560913,9.54246752372e-06,-0.00176283356268,0.220455020666,-9.72573280334,0.452495783567
1560116811470893621,-0.00181296560913,0.00166841140108,-0.00176283356268,0.180713221431,-9.74550056458,0.473452746868
1560116811474810362,-0.00265970476957,9.54246752372e-06,-0.00176283356268,0.219799861312,-9.74521255493,0.512434482574
1560116811478726864,-6.76363852108e-05,9.54246752372e-06,-1.75042805495e-05,0.23934841156,-9.72526550293,0.511857867241
1560116811482643366,-6.76363852108e-05,9.54246752372e-06,-1.75042805495e-05,0.219155222178,-9.72508621216,0.532238125801
1560116811486560106,-0.00181296560913,9.54246752372e-06,-0.00176283356268,0.2194801718,-9.72524833679,0.512302517891
1560116811490475655,-0.00181296560913,0.00135817585454,-0.00176283356268,0.2194801718,-9.72524833679,0.512302517891
1560116811494392395,-0.00181296560913,9.54246752372e-06,-1.75042805495e-05,0.19864231348,-9.70494174957,0.552486538887
1560116811498308897,-0.00181296560913,9.54246752372e-06,-1.75042805495e-05,0.198956742883,-9.74470901489,0.572685956955
1560116811502225399,-0.00355829484761,9.54246752372e-06,-1.75042805495e-05,0.219155222178,-9.72508621216,0.532238125801
1560116811506142139,-0.00355829484761,9.54246752372e-06,-1.75042805495e-05,0.178774043918,-9.70492458344,0.552931308746
1560116811510058641,-0.00355829484761,9.54246752372e-06,-0.0010574550254,0.199286952615,-9.72506809235,0.53268289566
1560116811513974190,-0.00558328905772,9.54246752372e-06,-1.75042805495e-05,0.199931591749,-9.74519443512,0.512879252434
1560116811517890930,-0.0057837474916,9.54246752372e-06,-0.00128271014515,0.199606642127,-9.74503231049,0.532814860344
1560116811521807432,-0.00479823970417,0.000514926843639,-0.00176283356268,0.198967263103,-9.70510292053,0.532550930977
1560116811525724173,-0.00505322008769,0.00474472206643,-0.00176283356268,0.219805121422,-9.72540950775,0.492366939783
1560116811529633760,-0.00530362408608,0.006990859285,-1.75042805495e-05,0.179743632674,-9.72521305084,0.51319205761
1560116811533549547,-0.00530362408608,0.006990859285,-1.75042805495e-05,0.200256541371,-9.74535560608,0.492943614721
1560116811537466049,-0.00530362408608,0.00524553004652,-1.75042805495e-05,0.220449760556,-9.74553585052,0.472563266754
1560116811541382551,-0.00355829484761,0.0050495175296,-0.00176283356268,0.201231390238,-9.74584007263,0.433136850595
1560116811545299292,-0.00355829484761,0.00350020104088,-0.000581387380043,0.221414089203,-9.78562641144,0.452891558409
1560116811549215794,-0.00614586509113,0.00175487168599,-1.75042805495e-05,0.200581490993,-9.74551773071,0.473008036613
1560116811553132534,-0.00879428256303,0.00175487168599,-1.75042805495e-05,0.221094399691,-9.76566123962,0.452759623528
1560116811557048082,-0.00640249848833,0.00524553004652,-1.75042805495e-05,0.201226130128,-9.76564311981,0.453204363585
1560116811560964584,-0.000408660063047,0.00524553004652,-1.75042805495e-05,0.201870769262,-9.78576946259,0.433400690556
1560116811564881325,-6.76363852108e-05,0.00175670029536,-1.75042805495e-05,0.20154581964,-9.78560829163,0.453336298466
1560116811568796873,-0.00181296560913,9.54246752372e-06,-0.000129028582115,0.181363105774,-9.74582290649,0.433581590652
1560116811572713375,-0.00071608712932,0.00110642094391,-0.00176283356268,0.20155107975,-9.76580429077,0.433268785477
1560116811576630116,0.00167769286782,0.00524553004652,-1.75042805495e-05,0.201220870018,-9.78544712067,0.473271876574
1560116811580545664,0.000356188748095,0.00524553004652,-0.00133900842231,0.20154581964,-9.78560829163,0.453336298466
1560116811584462166,-0.00293641145099,0.0011931487715,-0.00176283356268,0.220774710178,-9.74569702148,0.452627718449
1560116811588377953,-0.00375698655143,0.00155617998444,-0.000216195989346,0.199931591749,-9.74519443512,0.512879252434
1560116811592294455,-0.00451700341444,0.00175487168599,-1.75042805495e-05,0.200576230884,-9.76531982422,0.493075549603
1560116811596210003,-0.00353252301821,0.00175487168599,-1.75042805495e-05,0.17909899354,-9.70508575439,0.532995700836
1560116811600126743,-0.00181296560913,0.00276640136062,-1.75042805495e-05,0.180383011699,-9.76514148712,0.513455867767
1560116811604043245,-0.00206469696124,0.00524553004652,-1.75042805495e-05,0.199931591749,-9.74519443512,0.512879252434
1560116811607959747,-0.00232117514321,0.00524553004652,-1.75042805495e-05,0.199611902237,-9.72523021698,0.51274728775
1560116811611876488,-0.00181296560913,0.00524553004652,-0.00176283356268,0.199926331639,-9.76499652863,0.532946705818
1560116811615792036,-0.00181296560913,0.00378391493199,-0.0003012182166,0.199281692505,-9.74487113953,0.552750408649
1560116811619708538,-0.00111081001334,0.00105271609239,-1.75042805495e-05,0.197992414236,-9.70461845398,0.592357754707
1560116811623625278,-0.00175513119679,9.54246752372e-06,-1.75042805495e-05,0.198962002993,-9.72490692139,0.552618503571
1560116811627541780,-0.00274072734885,9.54246752372e-06,-1.75042805495e-05,0.198312103748,-9.72458362579,0.592489719391
1560116811631458521,-0.00355829484761,0.00192290587192,-0.00176283356268,0.178774043918,-9.70492458344,0.552931308746
1560116811635375023,-0.00355829484761,0.00350020104088,-0.00176283356268,0.19863705337,-9.72474479675,0.572554111481
1560116811639290571,-0.00530362408608,0.0013623473248,-1.75042805495e-05,0.197667464614,-9.70445632935,0.612293362617
1560116811643207312,-0.00530362408608,9.54246752372e-06,-1.75042805495e-05,0.178768783808,-9.72472763062,0.572998762131
1560116811647123814,-0.00530362408608,9.54246752372e-06,-1.75042805495e-05,0.199292212725,-9.70526504517,0.512615382671
1560116811651040316,-0.00530362408608,-0.00159412576241,-1.75042805495e-05,0.198951482773,-9.76451206207,0.592753529549
1560116811654956102,-0.00530362408608,-0.00173578679096,-1.75042805495e-05,0.178118884563,-9.72440433502,0.612869977951
1560116811658872604,-0.00696598484084,-0.00173578679096,-1.75042805495e-05,0.219149962068,-9.74488925934,0.552305698395
1560116811662789345,-0.00530362408608,-0.0006670820187,-0.00108620906729,0.199281692505,-9.74487113953,0.552750408649
1560116811666704893,-0.00561176992234,0.000317688300253,-0.00494534608695,0.180063322186,-9.74517726898,0.513323962688
1560116811670621395,-0.00704895332456,0.00175487168599,-0.00221458727727,0.200251281261,-9.76515865326,0.513011157513
1560116811674536943,-0.00477094812335,9.54246752372e-06,-1.75042805495e-05,0.199281692505,-9.74487113953,0.552750408649
1560116811678453684,-0.00355829484761,9.54246752372e-06,-1.75042805495e-05,0.200251281261,-9.76515865326,0.513011157513
1560116811682369232,-0.00431624441518,0.00175487168599,-1.75042805495e-05,0.219799861312,-9.74521255493,0.512434482574
1560116811686286926,-0.00704762322272,0.00175487168599,-0.00176150346081,0.220758929849,-9.80510616302,0.512830257416
1560116811690202475,-0.00704895332456,0.00175487168599,-1.75042805495e-05,0.199276432395,-9.76467323303,0.572817921638
1560116811694118977,-0.00682581970281,9.54246752372e-06,-1.75042805495e-05,0.220444500446,-9.76533794403,0.492630809546
1560116811698035717,-0.00409480781172,-0.0011992738207,-0.00122632058515,0.200256541371,-9.74535560608,0.492943614721
1560116811701953173,-0.00355829484761,-0.00173578679096,-1.75042805495e-05,0.200576230884,-9.76531982422,0.493075549603
1560116811705868721,-0.00499253428953,-0.000301547332592,-1.75042805495e-05,0.200261801481,-9.72555351257,0.472876101732
1560116811709785461,-0.00355829484761,9.54246752372e-06,-1.75042805495e-05,0.220444500446,-9.76533794403,0.492630809546
1560116811713701963,-0.00355829484761,9.54246752372e-06,-1.75042805495e-05,0.219799861312,-9.74521255493,0.512434482574
1560116811717618704,-0.00530362408608,9.54246752372e-06,-1.75042805495e-05,0.200576230884,-9.76531982422,0.493075549603
1560116811721535206,-0.00704895332456,9.54246752372e-06,-1.75042805495e-05,0.199926331639,-9.76499652863,0.532946705818
1560116811725452900,-0.00592240890103,-0.00111700196892,-1.75042805495e-05,0.179418683052,-9.72505092621,0.53312766552
1560116811729369402,-0.00355829484761,-0.00210243701369,-1.75042805495e-05,0.200251281261,-9.76515865326,0.513011157513
1560116811733285904,-0.00220619260755,-0.000776911507596,-1.75042805495e-05,0.198962002993,-9.72490692139,0.552618503571
1560116811737202644,-6.76363852108e-05,9.54246752372e-06,-1.75042805495e-05,0.219149962068,-9.74488925934,0.552305698395
1560116811741118193,-6.76363852108e-05,0.00158617252939,-1.75042805495e-05,0.220439240336,-9.78514194489,0.512698292732
1560116811745035648,-0.00088512583857,0.00268271152618,-0.00176283356268,0.179743632674,-9.72521305084,0.51319205761
1560116811748952389,-0.00361613475828,0.00175487168599,-0.00345032277792,0.179418683052,-9.72505092621,0.53312766552
1560116811752868891,-0.00530362408608,0.000711697644296,-0.000719659482934,0.199926331639,-9.76499652863,0.532946705818
1560116811756785631,-0.00530362408608,-0.00173578679096,-1.75042805495e-05,0.23772367835,-9.72445678711,0.611535787582
1560116811760703087,-0.00403430887731,-0.00173578679096,-1.75042805495e-05,0.218500062823,-9.74456596375,0.59217685461
1560116811764620781,-0.00181296560913,9.54246752372e-06,-1.75042805495e-05,0.197992414236,-9.70461845398,0.592357754707
1560116811768537283,-0.00330881978746,9.54246752372e-06,-0.00151335849629,0.198956742883,-9.74470901489,0.572685956955
1560116811772453785,-0.00181296560913,9.54246752372e-06,-0.00176283356268,0.197992414236,-9.70461845398,0.592357754707
1560116811776370525,-0.00181296560913,9.54246752372e-06,-0.00176283356268,0.19863705337,-9.72474479675,0.572554111481
1560116811780287027,-0.0027744092423,9.54246752372e-06,-0.00080138990546,0.239023476839,-9.7251033783,0.531793415546
1560116811784203529,-0.00375964707177,9.54246752372e-06,-1.75042805495e-05,0.199606642127,-9.74503231049,0.532814860344
1560116811788120270,-0.00411658069529,0.00119658584471,-1.75042805495e-05,0.198956742883,-9.74470901489,0.572685956955
1560116811792036772,-0.00530362408608,0.00392735050186,-1.75042805495e-05,0.198956742883,-9.74470901489,0.572685956955
1560116811795954704,-0.00530362408608,0.00524553004652,-1.75042805495e-05,0.21947491169,-9.7450504303,0.532370090485
1560116811799871206,-0.00465018564549,0.00524553004652,-1.75042805495e-05,0.2194801718,-9.72524833679,0.512302517891
1560116811803787947,-0.00191949329354,0.00524553004652,-1.75042805495e-05,0.21947491169,-9.7450504303,0.532370090485
1560116811807704449,-0.00181296560913,0.000875891784793,-1.75042805495e-05,0.199921071529,-9.78480052948,0.553014278412
1560116811811620951,-0.00355829484761,0.000128712109632,-1.75042805495e-05,0.180063322186,-9.74517726898,0.513323962688
1560116811815537691,-0.00245360147243,0.00285956513485,-1.75042805495e-05,0.200251281261,-9.76515865326,0.513011157513
1560116811819455147,-0.00215867427421,0.00524553004652,-1.75042805495e-05,0.200256541371,-9.74535560608,0.492943614721
1560116811823371887,-0.0048896134813,0.00524553004652,-1.75042805495e-05,0.200251281261,-9.76515865326,0.513011157513
1560116811827288389,-0.00530362408608,0.00350020104088,-1.75042805495e-05,0.179738372564,-9.74501514435,0.533259510994
1560116811831204891,-0.00530362408608,0.00194375399767,-0.00157395125887,0.179413422942,-9.74485397339,0.553195118904
1560116811835121632,-0.00530362408608,9.54246752372e-06,-0.00176283356268,0.199931591749,-9.74519443512,0.512879252434
1560116811839039087,-0.00530362408608,9.54246752372e-06,-0.00176283356268,0.200251281261,-9.76515865326,0.513011157513
1560116811842955828,-0.00530362408608,0.00103211091759,-0.000740265075316,0.200251281261,-9.76515865326,0.513011157513
1560116811846872330,-0.00530362408608,0.00350020104088,-0.00176283356268,0.198956742883,-9.74470901489,0.572685956955
1560116811850788832,-0.00405525051146,0.00474857444896,-0.00176283356268,0.180707961321,-9.76530265808,0.49352028966
1560116811854705572,-0.00404694016012,0.00524553004652,-0.00176283356268,0.200901180506,-9.76548194885,0.473139941692
1560116811858622074,-0.00530362408608,0.00524553004652,-0.000288689765701,0.200570970774,-9.78512382507,0.513143062592
1560116811862538576,-0.00387570364148,0.00278624077096,-1.75042805495e-05,0.199931591749,-9.74519443512,0.512879252434
1560116811866455317,-0.00181296560913,5.55765031896e-05,-0.00171679952533,0.198967263103,-9.70510292053,0.532550930977
1560116811870371819,-0.002752439187,-0.000929931121113,-0.00176283356268,0.180388271809,-9.74533843994,0.493388354778
1560116811874287605,-0.00355829484761,9.54246752372e-06,-0.00176283356268,0.180388271809,-9.74533843994,0.493388354778
1560116811878204107,-0.00472273396416,9.54246752372e-06,-0.000598394416998,0.21946965158,-9.76485347748,0.552437603474
1560116811882120609,-0.00570799109811,9.54246752372e-06,-1.75042805495e-05,0.179743632674,-9.72521305084,0.51319205761
1560116811886038303,-0.00704895332456,9.54246752372e-06,-1.75042805495e-05,0.199606642127,-9.74503231049,0.532814860344
1560116811889955759,-0.00467220748133,9.54246752372e-06,-1.75042805495e-05,0.218830272555,-9.7249250412,0.552173733711
1560116811893872499,-0.00194115945171,9.54246752372e-06,-1.75042805495e-05,0.198317363858,-9.70477962494,0.572422146797
1560116811897789001,-0.00181296560913,9.54246752372e-06,-1.75042805495e-05,0.219799861312,-9.74521255493,0.512434482574
1560116811901705503,-0.00181296560913,9.54246752372e-06,-1.75042805495e-05,0.199926331639,-9.76499652863,0.532946705818
1560116811905622244,-0.00289536205276,9.54246752372e-06,-1.75042805495e-05,0.200251281261,-9.76515865326,0.513011157513
1560116811909538746,-0.00355829484761,0.0014322655272,-1.75042805495e-05,0.17909373343,-9.72488975525,0.55306327343
1560116811913454294,-0.00486554604139,9.54246752372e-06,-1.75042805495e-05,0.179743632674,-9.72521305084,0.51319205761
1560116811917371035,-0.00759676867322,9.54246752372e-06,-1.75042805495e-05,0.218835532665,-9.70512104034,0.532106220722
1560116811921286583,-0.00726219555808,9.54246752372e-06,-1.75042805495e-05,0.199931591749,-9.74519443512,0.512879252434
1560116811925203323,-0.00627629986166,9.54246752372e-06,-1.75042805495e-05,0.219155222178,-9.72508621216,0.532238125801
1560116811929119825,-0.00529098817853,2.21783749291e-05,-1.75042805495e-05,0.200246021152,-9.78496170044,0.533078670502
1560116811933036327,-0.00355829484761,0.00175487168599,-1.75042805495e-05,0.180058062077,-9.76497936249,0.533391475677
1560116811936952114,-0.0020506398449,0.00151719745295,-1.75042805495e-05,0.200256541371,-9.74535560608,0.492943614721
1560116811940868616,-0.00355829484761,9.54246752372e-06,-1.75042805495e-05,0.180063322186,-9.74517726898,0.513323962688
1560116811944785118,-0.00355829484761,0.00129197811347,-1.75042805495e-05,0.180383011699,-9.76514148712,0.513455867767
1560116811948700905,-0.00500611546011,9.54246752372e-06,-1.75042805495e-05,0.220444500446,-9.76533794403,0.492630809546
1560116811952617407,-0.00530362408608,-0.00242371360358,-0.00176283356268,0.220449760556,-9.74553585052,0.472563266754
1560116811956533909,-0.00363012331772,-0.00180761525628,-0.00343633421942,0.180063322186,-9.74517726898,0.513323962688
1560116811960450649,-0.00181296560913,9.54246752372e-06,-0.00168119557687,0.200570970774,-9.78512382507,0.513143062592
1560116811964367151,-0.00181296560913,9.54246752372e-06,-1.75042805495e-05,0.201220870018,-9.78544712067,0.473271876574
1560116811968283892,-0.00181296560913,9.54246752372e-06,-1.75042805495e-05,0.220444500446,-9.76533794403,0.492630809546
1560116811972201347,-0.00219274608595,0.00137509121353,-1.75042805495e-05,0.200256541371,-9.74535560608,0.492943614721
1560116811976119041,-0.00355829484761,9.54246752372e-06,-0.00138344262227,0.199931591749,-9.74519443512,0.512879252434
1560116811980035543,-0.00530362408608,9.54246752372e-06,-0.00176283356268,0.2194801718,-9.72524833679,0.512302517891
1560116811983952045,-0.00530362408608,9.54246752372e-06,-0.00176283356268,0.180707961321,-9.76530265808,0.49352028966
1560116811987867832,-0.00530362408608,9.54246752372e-06,-1.75042805495e-05,0.200251281261,-9.76515865326,0.513011157513
1560116811991785288,-0.00348650057235,0.00182666596603,-1.75042805495e-05,0.200576230884,-9.76531982422,0.493075549603
1560116811995701790,-0.000756091953797,0.00455707456404,-1.75042805495e-05,0.200581490993,-9.74551773071,0.473008036613
1560116811999618769,-0.00181296560913,0.00524553004652,-1.75042805495e-05,0.180388271809,-9.74533843994,0.493388354778
1560116812003535271,-0.00181296560913,0.00524553004652,-1.75042805495e-05,0.180388271809,-9.74533843994,0.493388354778
1560116812007452011,-0.00181296560913,0.00350020104088,-1.75042805495e-05,0.220124810934,-9.74537372589,0.492498874664
1560116812011368513,-0.00332130758902,0.00199185896039,-1.75042805495e-05,0.199926331639,-9.76499652863,0.532946705818
1560116812015285015,-0.0043068866394,9.54246752372e-06,-1.75042805495e-05,0.199936851859,-9.72539138794,0.492811709642
1560116812019201756,-0.00356926818642,9.54246752372e-06,-0.0017518602236,0.199606642127,-9.74503231049,0.532814860344
1560116812023119211,-0.00181296560913,9.54246752372e-06,-0.00253303218779,0.17909373343,-9.72488975525,0.55306327343
1560116812027035952,-0.00355829484761,0.00175487168599,-1.75042805495e-05,0.179743632674,-9.72521305084,0.51319205761
1560116812030953407,-0.00355829484761,0.00295581345346,-1.75042805495e-05,0.180383011699,-9.76514148712,0.513455867767
1560116812034868956,-0.00355829484761,0.00394064733577,-1.75042805495e-05,0.199931591749,-9.74519443512,0.512879252434
1560116812038785696,-0.00355829484761,0.00524553004652,-0.00144346061404,0.179418683052,-9.72505092621,0.53312766552
1560116812042702198,-0.00422420347937,0.00350020104088,-0.00109692491426,0.199606642127,-9.74503231049,0.532814860344
1560116812046618938,-0.00365157206309,0.00184814890769,-1.75042805495e-05,0.199286952615,-9.72506809235,0.53268289566
1560116812050535440,-0.00355829484761,0.00175487168599,-0.000909372788047,0.179738372564,-9.74501514435,0.533259510994
1560116812054451942,-0.00355829484761,0.00175487168599,-1.75042805495e-05,0.198962002993,-9.72490692139,0.552618503571
1560116812058368683,-0.00355829484761,0.00175487168599,-1.75042805495e-05,0.220124810934,-9.74537372589,0.492498874664
1560116812062285185,-0.00355829484761,0.00175487168599,-1.75042805495e-05,0.21947491169,-9.7450504303,0.532370090485
1560116812066201925,-0.00355829484761,0.000412387692535,-1.75042805495e-05,0.199276432395,-9.76467323303,0.572817921638
1560116812070118427,-0.00355829484761,9.54246752372e-06,-0.00117989366613,0.219799861312,-9.74521255493,0.512434482574
1560116812074034929,-0.00355829484761,0.00157771303756,-1.75042805495e-05,0.180388271809,-9.74533843994,0.493388354778
1560116812077952623,-0.00181296560913,0.00175487168599,-0.00176283356268,0.199606642127,-9.74503231049,0.532814860344
1560116812081869125,-0.00186248976681,9.54246752372e-06,-0.00176283356268,0.199611902237,-9.72523021698,0.51274728775
1560116812085785866,-0.00355829484761,9.54246752372e-06,-0.000728367332066,0.199292212725,-9.70526504517,0.512615382671
1560116812089702368,-0.00502880696269,9.54246752372e-06,-1.75042805495e-05,0.199601382017,-9.76483535767,0.552882313728
1560116812093618870,-0.00355829484761,9.54246752372e-06,-1.75042805495e-05,0.199281692505,-9.74487113953,0.552750408649
1560116812097535610,-0.00181296560913,9.54246752372e-06,-1.75042805495e-05,0.200256541371,-9.74535560608,0.492943614721
1560116812101453066,-0.00329943803712,9.54246752372e-06,-1.75042805495e-05,0.199606642127,-9.74503231049,0.532814860344
1560116812105369806,-0.00355829484761,9.54246752372e-06,-1.75042805495e-05,0.199286952615,-9.72506809235,0.53268289566
1560116812109286308,-0.00355829484761,9.54246752372e-06,-1.75042805495e-05,0.199611902237,-9.72523021698,0.51274728775
1560116812113202810,-0.00451068549505,9.54246752372e-06,-1.75042805495e-05,0.199926331639,-9.76499652863,0.532946705818
1560116812117119551,-0.00530362408608,0.00175487168599,-1.75042805495e-05,0.199286952615,-9.72506809235,0.53268289566
1560116812121036053,-0.00412593830673,0.00293255754389,-1.75042805495e-05,0.180388271809,-9.74533843994,0.493388354778
1560116812124952555,-0.00355829484761,0.00175487168599,-1.75042805495e-05,0.220444500446,-9.76533794403,0.492630809546
1560116812128869295,-0.00355829484761,0.000351327335301,-1.75042805495e-05,0.179743632674,-9.72521305084,0.51319205761
1560116812132785797,-0.00181296560913,0.000653004821198,-0.000660966657695,0.2194801718,-9.72524833679,0.512302517891
1560116812136702538,-0.000184135398948,0.00175487168599,-0.00176283356268,0.199926331639,-9.76499652863,0.532946705818
1560116812140620232,-0.00094304311333,0.0026302784798,-0.00263824023971,0.199606642127,-9.74503231049,0.532814860344
1560116812144536972,-0.00192331592726,0.00175487168599,-0.00176283356268,0.200256541371,-9.74535560608,0.492943614721
1560116812148453474,-0.00465342597056,0.000659740575589,-0.00176283356268,0.17909373343,-9.72488975525,0.55306327343
1560116812152369976,-0.00530362408608,0.00209037138342,-1.75042805495e-05,0.199931591749,-9.74519443512,0.512879252434
1560116812156286716,-0.00530362408608,0.00350020104088,-1.75042805495e-05,0.159875363111,-9.72519493103,0.513636767864
1560116812160204172,-0.00530362408608,0.00468364130215,-0.00176283356268,0.199926331639,-9.76499652863,0.532946705818
1560116812164120913,-0.00530362408608,0.00350020104088,-0.00176283356268,0.199281692505,-9.74487113953,0.552750408649
1560116812168037415,-0.00451633849282,0.00350020104088,-0.00176283356268,0.218830272555,-9.7249250412,0.552173733711
1560116812171953917,-0.00181296560913,0.00175487168599,-0.00176283356268,0.21947491169,-9.7450504303,0.532370090485
1560116812175870657,-0.00181296560913,0.00175487168599,-0.00074997423237,0.199606642127,-9.74503231049,0.532814860344
1560116812179787159,-0.00381140283014,0.00524553004652,-0.00150972557382,0.200251281261,-9.76515865326,0.513011157513
1560116812183704853,-0.00530362408608,0.00524553004652,-0.00125670982925,0.180058062077,-9.76497936249,0.533391475677
1560116812187621355,-0.00482448169428,0.00524553004652,-1.75042805495e-05,0.179743632674,-9.72521305084,0.51319205761
1560116812191537857,-0.00502259637869,0.00524553004652,-1.75042805495e-05,0.199926331639,-9.76499652863,0.532946705818
1560116812195454597,-0.00530362408608,0.00279521959184,-0.000722485700199,0.199926331639,-9.76499652863,0.532946705818
1560116812199371099,-0.00699377814346,6.47176479893e-05,-0.00176283356268,0.199936851859,-9.72539138794,0.492811709642
1560116812203288794,-0.00530362408608,9.54246752372e-06,-1.75042805495e-05,0.179413422942,-9.74485397339,0.553195118904
1560116812207204342,-0.00513353070941,9.54246752372e-06,-1.75042805495e-05,0.179743632674,-9.72521305084,0.51319205761
1560116812211120844,-0.00240266454296,9.54246752372e-06,-1.75042805495e-05,0.179733112454,-9.76481819153,0.553327083588
1560116812215037584,-0.00181296560913,9.54246752372e-06,-1.75042805495e-05,0.180063322186,-9.74517726898,0.513323962688
1560116812218955040,-0.0031951345214,-0.00137262646059,-1.75042805495e-05,0.199606642127,-9.74503231049,0.532814860344
1560116812222870588,-0.00418001234583,-0.00111406928561,-1.75042805495e-05,0.179738372564,-9.74501514435,0.533259510994
1560116812226787329,-0.00530362408608,9.54246752372e-06,-1.75042805495e-05,0.199286952615,-9.72506809235,0.53268289566
1560116812230703831,-0.00530362408608,0.00260201419584,-1.75042805495e-05,0.199926331639,-9.76499652863,0.532946705818
1560116812234620571,-0.00521649919313,0.00524553004652,-1.75042805495e-05,0.199936851859,-9.72539138794,0.492811709642
1560116812238537073,-0.00248560144498,0.00524553004652,-1.75042805495e-05,0.21947491169,-9.7450504303,0.532370090485
1560116812242454529,-0.00181296560913,0.00144127073751,-0.00144923260276,0.17909373343,-9.72488975525,0.55306327343
1560116812246370316,-0.00440976038498,9.54246752372e-06,-1.75042805495e-05,0.21947491169,-9.7450504303,0.532370090485
1560116812250286818,-0.00530362408608,9.54246752372e-06,-1.75042805495e-05,0.199926331639,-9.76499652863,0.532946705818
1560116812254203558,-0.00530362408608,9.54246752372e-06,-1.75042805495e-05,0.199936851859,-9.72539138794,0.492811709642
1560116812258120060,-0.00530362408608,9.54246752372e-06,-0.000781387083762,0.199611902237,-9.72523021698,0.51274728775
1560116812262037516,-0.00530362408608,9.54246752372e-06,-0.00176283356268,0.180063322186,-9.74517726898,0.513323962688
1560116812265954256,-0.00530362408608,9.54246752372e-06,-0.00176283356268,0.180388271809,-9.74533843994,0.493388354778
1560116812269870758,-0.00332834429628,0.000469443582875,-0.0015328830056,0.219794601202,-9.76501464844,0.532501995564
1560116812273786306,-0.00181296560913,0.00350020104088,-1.75042805495e-05,0.180063322186,-9.74517726898,0.513323962688
1560116812277703047,-0.00355829484761,0.00479016155269,-1.75042805495e-05,0.199926331639,-9.76499652863,0.532946705818
1560116812281619549,-0.00355829484761,0.00205952719261,-0.00145817806876,0.219794601202,-9.76501464844,0.532501995564
1560116812285536289,-0.00181296560913,0.000690589547518,-0.00176283356268,0.199931591749,-9.74519443512,0.512879252434
1560116812289451838,-0.00181296560913,0.00175487168599,-0.00176283356268,0.200256541371,-9.74535560608,0.492943614721
1560116812293368340,-0.00355829484761,-0.000896126923875,-1.75042805495e-05,0.200261801481,-9.72555351257,0.472876101732
1560116812297286034,-0.00544994154664,-0.00522644538432,-0.00016382174477,0.199926331639,-9.76499652863,0.532946705818
1560116812301202536,-0.00704895332456,-0.00296271933547,-0.000630970547688,0.200256541371,-9.74535560608,0.492943614721
1560116812305119276,-0.00493135783508,9.54246752372e-06,-1.75042805495e-05,0.199611902237,-9.72523021698,0.51274728775
1560116812309034824,-0.00220137089389,9.54246752372e-06,-1.75042805495e-05,0.199931591749,-9.74519443512,0.512879252434
1560116812312951326,-0.000664486014323,9.54246752372e-06,-0.00176283356268,0.219794601202,-9.76501464844,0.532501995564
1560116812316868067,-0.00339524716253,9.54246752372e-06,-0.00176283356268,0.180388271809,-9.74533843994,0.493388354778
1560116812320784569,-0.00530362408608,9.54246752372e-06,-1.75042805495e-05,0.199292212725,-9.70526504517,0.512615382671
1560116812324701071,-0.00524113021321,9.54246752372e-06,4.49895907587e-05,0.199286952615,-9.72506809235,0.53268289566
1560116812328617811,-0.00251029949711,9.54246752372e-06,0.000679829589988,0.21947491169,-9.7450504303,0.532370090485
1560116812332534313,-0.00355829484761,0.000297909773432,0.00143945761227,0.219799861312,-9.74521255493,0.512434482574
1560116812336451054,-0.00483176557895,0.00175487168599,-1.75042805495e-05,0.180063322186,-9.74517726898,0.513323962688
1560116812340368748,-0.00530362408608,0.00175487168599,-0.000532225233305,0.199926331639,-9.76499652863,0.532946705818
1560116812344285250,-0.00530362408608,0.00325488088947,-0.00176283356268,0.180063322186,-9.74517726898,0.513323962688
1560116812348201990,-0.00456324671164,0.00450515277085,-1.75042805495e-05,0.221089139581,-9.78546524048,0.472827136517
1560116812352118492,-0.00355829484761,4.84495275169e-05,-1.75042805495e-05,0.180058062077,-9.76497936249,0.533391475677
1560116812356035233,-0.00181296560913,-0.00270127753581,-1.75042805495e-05,0.200256541371,-9.74535560608,0.492943614721
1560116812359951735,-0.00181296560913,-0.00153018977006,-1.75042805495e-05,0.219794601202,-9.76501464844,0.532501995564
1560116812363869190,-0.00300461789985,9.54246752372e-06,-0.00120915660107,0.199931591749,-9.74519443512,0.512879252434
1560116812367785931,-0.00355829484761,9.54246752372e-06,-0.00219496953948,0.220124810934,-9.74537372589,0.492498874664
1560116812371702433,-0.00497590725783,9.54246752372e-06,-0.00209055036907,0.218830272555,-9.7249250412,0.552173733711
1560116812375617981,-0.00530362408608,-0.00239265452308,-1.75042805495e-05,0.180058062077,-9.76497936249,0.533391475677
1560116812379535675,-0.00201773158047,-0.00348111591302,-1.75042805495e-05,0.199926331639,-9.76499652863,0.532946705818
1560116812383451223,-0.0009304962624,-0.00173578679096,-1.75042805495e-05,0.219149962068,-9.74488925934,0.552305698395
1560116812387367964,-6.76363852108e-05,9.54246752372e-06,-1.75042805495e-05,0.199931591749,-9.74519443512,0.512879252434
1560116812391284466,-0.00117565557592,9.54246752372e-06,-1.75042805495e-05,0.199931591749,-9.74519443512,0.512879252434
1560116812395200014,-0.00216013596685,0.000356712821256,-0.000364674646945,0.199281692505,-9.74487113953,0.552750408649
1560116812399116755,-0.00355829484761,0.00175487168599,-0.00176283356268,0.218835532665,-9.70512104034,0.532106220722
1560116812403033257,-0.00413131907425,0.00175487168599,-1.75042805495e-05,0.200256541371,-9.74535560608,0.492943614721
1560116812406949759,-0.00530362408608,0.00175487168599,-1.75042805495e-05,0.199606642127,-9.74503231049,0.532814860344
1560116812410866499,-0.00355829484761,0.00175487168599,-1.75042805495e-05,0.180377751589,-9.7849445343,0.533523440361
1560116812414783001,-0.00530362408608,0.00171646325714,-1.75042805495e-05,0.180063322186,-9.74517726898,0.513323962688
1560116812418699741,-0.00530362408608,9.54246752372e-06,-1.75042805495e-05,0.199281692505,-9.74487113953,0.552750408649
1560116812422615290,-0.00530362408608,9.54246752372e-06,-1.75042805495e-05,0.200256541371,-9.74535560608,0.492943614721
1560116812426531792,-0.00405458595917,0.00250761879035,-1.75042805495e-05,0.179738372564,-9.74501514435,0.533259510994
1560116812430448532,-0.00306898448391,0.00252158028645,-1.75042805495e-05,0.200576230884,-9.76531982422,0.493075549603
1560116812434365034,-0.00181296560913,9.54246752372e-06,-1.75042805495e-05,0.179738372564,-9.74501514435,0.533259510994
1560116812438280582,-0.00252702390329,-0.00173578679096,-0.00104877525066,0.199286952615,-9.72506809235,0.53268289566
1560116812442197323,-0.00355829484761,-3.63300310398e-05,-1.75042805495e-05,0.17908847332,-9.74469184875,0.573130726814
1560116812446112871,-0.00530362408608,0.000948516945321,-1.75042805495e-05,0.199606642127,-9.74503231049,0.532814860344
1560116812450029373,-0.00530362408608,0.00175487168599,-1.75042805495e-05,0.199286952615,-9.72506809235,0.53268289566
1560116812453947067,-0.0041384089292,0.00175487168599,-1.75042805495e-05,0.199926331639,-9.76499652863,0.532946705818
1560116812457863569,-0.0014079338316,0.00134983990972,-0.00135780177163,0.199281692505,-9.74487113953,0.552750408649
1560116812461780310,-6.76363852108e-05,9.54246752372e-06,-1.75042805495e-05,0.199931591749,-9.74519443512,0.512879252434
1560116812465696812,-0.000698388378703,0.000640294459044,0.00109707293129,0.220114290714,-9.78497982025,0.532633900642
1560116812469613314,-0.00342927036901,0.00337117655368,-1.75042805495e-05,0.21947491169,-9.7450504303,0.532370090485
1560116812473530054,-0.00441466663677,0.00175487168599,-0.000906461752094,0.220119550824,-9.76517677307,0.512566447258
1560116812477446556,-0.00355829484761,0.00165860199644,-1.75042805495e-05,0.180377751589,-9.7849445343,0.533523440361
1560116812481364250,-0.00247583539637,9.54246752372e-06,-1.75042805495e-05,0.199606642127,-9.74503231049,0.532814860344
1560116812485280752,-0.00355829484761,9.54246752372e-06,-1.75042805495e-05,0.17908847332,-9.74469184875,0.573130726814
1560116812489196301,-0.00355829484761,9.54246752372e-06,-1.75042805495e-05,0.199606642127,-9.74503231049,0.532814860344
1560116812493113041,-0.00530362408608,9.54246752372e-06,-0.00231064865599,0.199601382017,-9.76483535767,0.552882313728
1560116812497029543,-0.00377028845575,0.00154287808028,-0.00197482715668,0.200251281261,-9.76515865326,0.513011157513
1560116812500945091,-0.00433048759104,0.000982678951407,-1.75042805495e-05,0.199286952615,-9.72506809235,0.53268289566
1560116812504861832,-0.00879428256303,9.54246752372e-06,-1.75042805495e-05,0.180058062077,-9.76497936249,0.533391475677
1560116812508779287,-0.00779576433675,0.00100806068236,-1.75042805495e-05,0.199936851859,-9.72539138794,0.492811709642
1560116812512696028,-0.00704895332456,9.54246752372e-06,-1.75042805495e-05,0.199601382017,-9.76483535767,0.552882313728
1560116812516611576,-0.00582504492708,9.54246752372e-06,-0.00124141270864,0.220769450068,-9.76550006866,0.472695201635
1560116812520529032,-0.00309407066092,0.00221909590364,-0.00176283356268,0.199281692505,-9.74487113953,0.552750408649
1560116812524445772,-0.00181296560913,0.00350020104088,-0.000313018457479,0.200576230884,-9.76531982422,0.493075549603
1560116812528360844,-0.00355829484761,0.00175487168599,-1.75042805495e-05,0.199606642127,-9.74503231049,0.532814860344
1560116812532277346,-0.00355829484761,0.00175487168599,-0.00169300097621,0.200256541371,-9.74535560608,0.492943614721
1560116812536194086,-0.00447393994629,0.000839226597805,-0.00176283356268,0.200256541371,-9.74535560608,0.492943614721
1560116812540110588,-0.00530362408608,-0.000145919095133,-1.75042805495e-05,0.199601382017,-9.76483535767,0.552882313728
1560116812544027090,-0.00416262002767,-0.00287679077326,-0.0011585083675,0.219155222178,-9.72508621216,0.532238125801
1560116812547944784,-0.00181296560913,9.54246752372e-06,-0.00214490452306,0.200251281261,-9.76515865326,0.513011157513
1560116812551861286,-0.00181296560913,0.00274433986885,-0.00214076411305,0.198962002993,-9.72490692139,0.552618503571
1560116812555778980,-0.00355829484761,0.00114688310456,-0.00115484495907,0.17908847332,-9.74469184875,0.573130726814
1560116812559695482,-0.00355829484761,-0.00158370826598,-1.75042805495e-05,0.21947491169,-9.7450504303,0.532370090485
1560116812563613176,-0.00355829484761,-0.00173578679096,-1.75042805495e-05,0.199926331639,-9.76499652863,0.532946705818
1560116812567529678,-0.00173847731669,9.54246752372e-06,-1.75042805495e-05,0.199931591749,-9.74519443512,0.512879252434
1560116812571446180,-6.76363852108e-05,9.54246752372e-06,-1.75042805495e-05,0.199926331639,-9.76499652863,0.532946705818
1560116812575362921,-0.00385807865313,-0.000290241341439,-1.75042805495e-05,0.199286952615,-9.72506809235,0.53268289566
1560116812579279423,-0.00530362408608,-0.00173578679096,-1.75042805495e-05,0.180713221431,-9.74550056458,0.473452746868
1560116812583196163,-0.00530362408608,9.54246752372e-06,-1.75042805495e-05,0.199606642127,-9.74503231049,0.532814860344
1560116812587112904,-0.00379245625698,0.0015207102793,-1.75042805495e-05,0.180058062077,-9.76497936249,0.533391475677
1560116812591029406,-0.00430933358772,0.00175487168599,-1.75042805495e-05,0.179418683052,-9.72505092621,0.53312766552
1560116812594946146,-0.00530362408608,0.00175487168599,-1.75042805495e-05,0.198962002993,-9.72490692139,0.552618503571
1560116812598863602,-0.00432595992204,9.54246752372e-06,-1.75042805495e-05,0.19863705337,-9.72474479675,0.572554111481
1560116812602781296,-0.00333998293952,9.54246752372e-06,-1.75042805495e-05,0.199931591749,-9.74519443512,0.512879252434
1560116812606697798,-0.00301679561013,9.54246752372e-06,-1.75042805495e-05,0.199286952615,-9.72506809235,0.53268289566
1560116812610614300,-0.00355829484761,9.54246752372e-06,-1.75042805495e-05,0.199286952615,-9.72506809235,0.53268289566
1560116812614531994,-0.0021280458375,9.54246752372e-06,-1.75042805495e-05,0.199281692505,-9.74487113953,0.552750408649
1560116812618448496,-0.00181296560913,9.54246752372e-06,-1.75042805495e-05,0.199606642127,-9.74503231049,0.532814860344
1560116812622364998,-0.00346821968395,9.54246752372e-06,-1.75042805495e-05,0.198956742883,-9.74470901489,0.572685956955
1560116812626281738,-0.00530362408608,9.54246752372e-06,-1.75042805495e-05,0.179738372564,-9.74501514435,0.533259510994
1560116812630198240,-0.00516783379417,9.54246752372e-06,-0.000153294575859,0.199276432395,-9.76467323303,0.572817921638
1560116812634115934,-0.00355829484761,9.54246752372e-06,-0.000640848520686,0.159545153379,-9.74483585358,0.553639888763
1560116812638033390,-0.00217556458203,-0.00209838573967,-1.75042805495e-05,0.198317363858,-9.70477962494,0.572422146797
1560116812641950130,-0.00355829484761,-0.00348111591302,-1.75042805495e-05,0.179738372564,-9.74501514435,0.533259510994
1560116812645867586,-0.00355829484761,-0.00289185777042,-0.00176283356268,0.179733112454,-9.76481819153,0.553327083588
1560116812649785519,-0.00355829484761,-0.000160303408366,-0.00018735015874,0.198631793261,-9.74454784393,0.592621564865
1560116812653702021,-0.00355829484761,0.00175487168599,-1.75042805495e-05,0.179408162832,-9.76465606689,0.573262691498
1560116812657618523,-0.00355829484761,-4.61370739765e-05,-1.75042805495e-05,0.179413422942,-9.74485397339,0.553195118904
1560116812661536217,-0.00251645112226,-0.00277763044682,-1.75042805495e-05,0.159550413489,-9.7250328064,0.533572375774
1560116812665452719,-0.00384009491131,-0.00494464528302,-1.75042805495e-05,0.17908847332,-9.74469184875,0.573130726814
1560116812669369221,-0.00657077892504,-0.00221396115858,-1.75042805495e-05,0.178443834186,-9.72456645966,0.592934370041
1560116812673285961,-0.00704895332456,9.54246752372e-06,-1.75042805495e-05,0.158889994025,-9.76431465149,0.613578557968
1560116812677202463,-0.00555602133942,9.54246752372e-06,-0.00151043630303,0.177468985319,-9.72408103943,0.652741193771
1560116812681120157,-0.00355829484761,9.54246752372e-06,-0.00350816268474,0.157270506024,-9.74370384216,0.693189024925
1560116812685036659,-0.00527703616684,-0.00170919887141,-0.00350816268474,0.137402236462,-9.74368572235,0.693633794785
1560116812688953161,-0.00626263239166,-0.00444012434653,-0.00080382523311,0.136595115066,-9.72347927094,0.723405241966
1560116812692868948,-0.00744618546947,-0.00522644538432,-0.000216120357974,0.155808225274,-9.74297714233,0.782899141312
1560116812696786404,-0.0105396118015,-0.00404177584256,-0.00176283356268,0.134965106845,-9.74247360229,0.843150734901
1560116812700703144,-0.00619939851407,-0.00131100938085,-0.00308338530783,0.133020669222,-9.72170162201,0.942696809769
1560116812704619646,-0.00214766604176,0.0014201712572,-0.00176283356268,0.151589140296,-9.72107315063,1.02199435234
1560116812708537102,-0.00376679735095,0.00110359444618,-0.00176283356268,0.149964392185,-9.72026538849,1.12167239189
1560116812712453842,-0.0103222347097,-0.0016270982438,-0.00176283356268,0.189066797495,-9.66056728363,1.10045146942
1560116812716370344,-0.00878597370199,-0.00348111591302,-0.00350816268474,0.26917925477,-9.70056819916,1.09893643856
1560116812720287085,-0.00530362408608,-0.00359812520143,-0.00339115341974,0.308596104383,-9.68063926697,1.09791505337
1560116812724204540,-0.00750968570905,-0.00743250700729,-0.00176283356268,0.447181344032,-9.70032405853,1.14477276802
1560116812728121042,-0.0108825924358,-0.00871710386127,-1.75042805495e-05,0.467044323683,-9.72014522552,1.16439557076
1560116812732038736,-0.0109557916311,-0.00738795445242,-1.75042805495e-05,0.526334762573,-9.68043136597,1.14286196232
1560116812735956192,-0.0111096442805,-0.00522644538432,-1.75042805495e-05,0.42762747407,-9.74007415771,1.16541695595
1560116812739874125,-0.0138413886768,-0.00211355000695,-1.75042805495e-05,0.427952408791,-9.74023628235,1.14548134804
1560116812743790627,-0.0165720294052,-0.00173578679096,-1.75042805495e-05,0.328600555658,-9.779753685,1.1878401041
1560116812747708321,-0.0157386867623,-0.00169887494753,-1.75042805495e-05,0.229437470436,-9.72033596039,1.11989343166
1560116812751624823,-0.0130077708123,0.00103204192192,-1.75042805495e-05,0.231046468019,-9.78055286407,1.08041799068
1560116812755542517,-0.01228494104,0.00350020104088,-1.75042805495e-05,0.211188688874,-9.74092960358,1.04072773457
1560116812759459019,-0.01228494104,0.00474904981931,-1.75042805495e-05,0.173380807042,-9.82107639313,1.00227367878
1560116812763375521,-0.010050826202,0.00524553004652,-1.75042805495e-05,0.193574026227,-9.82125473022,0.98189330101
1560116812767292261,-0.0102685296573,0.0067197771408,-0.0014917514117,0.154812335968,-9.82170391083,0.922976016998
1560116812771209717,-0.0112547962737,0.00802100405127,-0.00350816268474,0.136553063989,-9.88190364838,0.883945345879
1560116812775126457,-0.01228494104,0.006990859285,-0.00350816268474,0.135274276137,-9.80204391479,0.883417725563
1560116812779042959,-0.01228494104,0.006990859285,-0.00176283356268,0.175330504775,-9.82204532623,0.882660150528
1560116812782959461,-0.0105396118015,0.006990859285,-1.75042805495e-05,0.194548875093,-9.82173919678,0.922086596489
1560116812786876202,-0.0105396118015,0.00815696100878,-1.75042805495e-05,0.154487386346,-9.82154273987,0.942911624908
1560116812790793657,-0.00879428256303,0.00914318818362,-0.000424503950882,0.134619116783,-9.82152462006,0.943356394768
1560116812794708252,-0.00879428256303,0.00909050846297,-0.00176283356268,0.0958521738648,-9.84177780151,0.90450668335
1560116812798624992,-0.00879428256303,0.00572769433127,-1.75042805495e-05,0.0939129814506,-9.8012008667,0.983985066414
1560116812802541494,-0.00556032060693,0.00350020104088,-1.75042805495e-05,0.113765500486,-9.8606300354,1.04374289513
1560116812806459188,-0.00095518247635,0.00524553004652,-1.75042805495e-05,0.131385400891,-9.76049900055,1.08250975609
1560116812810375690,-6.76363852108e-05,0.00544072925078,-0.00176283356268,0.151898309588,-9.78064346313,1.062261343
1560116812814293146,-6.76363852108e-05,0.00873618852347,-0.00176283356268,0.171116679907,-9.78033828735,1.10168778896
1560116812818209887,0.00167769286782,0.00873618852347,-0.00034103394062,0.190340310335,-9.76022911072,1.12104678154
1560116812822126389,0.00167769286782,0.00873618852347,-0.00307220489946,0.209244251251,-9.72015666962,1.14027380943
1560116812826043129,0.00112817280252,0.0110310378227,-0.00350816268474,0.249620169401,-9.76012039185,1.13964819908
1560116812829960585,-6.76363852108e-05,0.0122268470004,-0.00350816268474,0.288229912519,-9.71998500824,1.16839814186
