#timestamp [ns],w_RS_S_x [rad s^-1],w_RS_S_y [rad s^-1],w_RS_S_z [rad s^-1],a_RS_S_x [m s^-2],a_RS_S_y [m s^-2],a_RS_S_z [m s^-2]
1560000083919158459,0.0131137377449,0.0112627775541,-1.75042805495e-05,0.331383675337,-9.70191478729,0.93811750412
1560000083923074484,0.0156403258443,0.0104815177619,-0.0019663973276,0.270489573479,-9.66160869598,0.979058980942
1560000083926990747,0.0156403258443,0.0116697844242,-0.00350816268474,0.270329713821,-9.65162658691,0.978993058205
1560000083930907726,0.015212264034,0.0122268470004,-0.00176283356268,0.330398321152,-9.7410364151,1.03805923462
1560000083934823990,0.0124821828234,0.0122268470004,-0.00317564818222,0.348793774843,-9.77993202209,1.16745972633
1560000083938741207,0.0110570501248,0.0133194651743,-0.0046007808586,0.365444093943,-9.65951538086,1.24596595764
1560000083942657232,0.0121496682987,0.0122268470004,-0.000232284143241,0.286620914936,-9.65976715088,1.20787358284
1560000083946574450,0.0130174303194,0.0131044142181,-1.75042805495e-05,0.183912307024,-9.48965549469,1.24884724617
1560000083950491667,0.010286521269,0.0174628347158,-0.00176283356268,0.203125402331,-9.50915431976,1.30834114552
1560000083954407692,0.00755668773769,0.0163605120436,-0.000660511451082,0.200861275196,-9.46841621399,1.40775537491
1560000083958324909,0.0030808691009,0.0143143290617,-1.75042805495e-05,0.302760154009,-9.62822151184,1.40658700466
1560000083962241173,0.000350657362746,0.0170445407482,-1.75042805495e-05,0.261771142483,-9.44931316376,1.30661118031
1560000083966158152,-6.76363852108e-05,0.0174628347158,-1.75042805495e-05,0.182612508535,-9.4890089035,1.32858943939
1560000083970074415,-0.00317048014715,0.0174628347158,-0.00156892620679,0.160495877266,-9.38884544373,1.36824584007
1560000083973990440,-0.00609461381238,0.0174628347158,-0.00176283356268,0.239633470774,-9.42836093903,1.42653751373
1560000083977906704,-0.00882485863531,0.0174934108044,-0.00176283356268,0.342821657658,-9.62841892242,1.38576185703
1560000083981823921,-0.00952363692874,0.0192081648856,-0.00176283356268,0.32523855567,-9.58992671967,1.20652246475
1560000083985739946,-0.00930463140017,0.0192081648856,-0.00176283356268,0.188416898251,-9.66024398804,1.14032268524
1560000083989656210,-0.0147649261587,0.0192081648856,-0.000522840641473,0.148033097386,-9.64998435974,1.17104959488
1560000083993572235,-0.0192662589252,0.0179423684397,-0.00128330008267,0.209244251251,-9.72015666962,1.14027380943
1560000083997487545,-0.0207292572335,0.0192081648856,-1.75042805495e-05,0.289707928896,-9.66130256653,1.0184854269
1560000084001404762,-0.0227569155395,0.0209534931928,-1.75042805495e-05,0.273712813854,-9.76223945618,0.880040645599
1560000084005320787,-0.0210694161175,0.0209534931928,-1.75042805495e-05,0.195214554667,-9.76265335083,0.822012901306
1560000084009235144,-0.0192662589252,0.0209534931928,-1.75042805495e-05,0.0968585684896,-9.72344398499,0.72429472208
1560000084013153076,-0.0192662589252,0.0192081648856,-1.75042805495e-05,0.138680994511,-9.82354450226,0.6941614151
1560000084017070293,-0.0181143979228,0.0180563038832,-0.00116936469711,0.218830272555,-9.7249250412,0.552173733711
1560000084020986557,-0.0167385395941,0.0174628347158,-0.00311696813016,0.380339235067,-9.86498165131,0.529603719711
1560000084024903536,-0.012653681954,0.0174628347158,-0.000386245203791,0.499548882246,-9.86508846283,0.526935338974
1560000084028819799,-0.01228494104,0.0174628347158,-1.75042805495e-05,0.44187271595,-9.94521713257,0.488925993443
1560000084032736063,-0.0106839059046,0.0190638707056,-1.75042805495e-05,0.263068795204,-9.90545082092,0.452793627977
1560000084036651134,-0.00620977329956,0.0235380019727,-1.75042805495e-05,0.135848432779,-10.0053195953,0.43640846014
1560000084040569305,-0.00355829484761,0.0242839606237,-1.75042805495e-05,0.14322501421,-9.84561061859,0.435130685568
1560000084044486523,-0.00249277583755,0.0188224551727,-1.75042805495e-05,0.222692847252,-9.86548614502,0.453419268131
1560000084048403502,-6.76363852108e-05,0.0136667975197,-1.75042805495e-05,0.359176397324,-9.84451389313,0.589723348618
1560000084052319765,-6.76363852108e-05,0.0122268470004,-1.75042805495e-05,0.438974440098,-9.84474658966,0.568008780479
1560000084056235790,0.00167769286782,0.0150316023468,-1.75042805495e-05,0.358212083578,-9.80442142487,0.609395027161
1560000084060152054,0.00470538964524,0.0204905314933,-1.75042805495e-05,0.158549264073,-9.82356262207,0.693716704845
1560000084064067364,0.00592119300849,0.0234516635654,-0.00077034596311,0.0958679392934,-9.7823677063,0.844304084778
1560000084067985296,0.00691368058324,0.0244441516697,-0.00176283356268,0.173726797104,-9.74202537537,0.902068018913
1560000084071901560,0.00789198956766,0.0234658421633,-1.75042805495e-05,0.312809944153,-9.72234630585,0.878887414932
1560000084075817823,0.00887653204898,0.0189906425423,-1.75042805495e-05,0.469491958618,-9.68175125122,0.974743485451
1560000084079734802,0.0104043390602,0.0174628347158,-1.75042805495e-05,0.388388901949,-9.70067405701,1.09626793861
1560000084083651066,0.0104043390602,0.0183468868463,-1.75042805495e-05,0.248986065388,-9.70038890839,1.11931681633
1560000084087568045,0.00897693110271,0.0209534931928,-1.75042805495e-05,0.188262313604,-9.63045883179,1.12018918991
1560000084091484308,0.00691368058324,0.022031798033,0.00106080110805,0.206851825118,-9.55061912537,1.11921679974
1560000084095400572,0.00691368058324,0.0193015902222,-1.75042805495e-05,0.205714508891,-9.5500535965,1.18899142742
1560000084099316597,0.00516835134476,0.0192081648856,-0.000908198893343,0.164363712072,-9.50960350037,1.2494238615
1560000084103232861,0.00342302210629,0.0174628347158,-0.00163255231926,0.164992600679,-9.58913803101,1.28982269764
1560000084107148886,0.0023081260238,0.0185777313933,-1.75042805495e-05,0.204734399915,-9.56937122345,1.26886570454
1560000084111066103,-6.76363852108e-05,0.0192081648856,-0.000372421887598,0.186805307865,-9.60992908478,1.18983185291
1560000084114982367,-0.00140733448414,0.0192081648856,-0.000423135419072,0.304065227509,-9.60906600952,1.30677711964
1560000084118899345,-0.00471808059044,0.0192081648856,-0.00118294067676,0.264653623104,-9.60919189453,1.28773093224
1560000084122815609,-0.00861358224309,0.0192081648856,-0.00158213323821,0.24446567893,-9.58920860291,1.28804373741
1560000084126732826,-0.00798961581456,0.0208174975238,-0.00256750025748,0.225242063403,-9.60931777954,1.26868486404
1560000084130649805,-0.00883881717094,0.0226542869158,-0.00176283356268,0.186171188951,-9.55019664764,1.16950047016
1560000084134566069,-0.011568789445,0.0178659597133,-0.000733655893485,0.167749404907,-9.61031532288,1.14043772221
1560000084138482332,-0.0142986029006,0.0139721762389,-1.75042805495e-05,0.188574120402,-9.68012905121,1.15042245388
1560000084142399311,-0.0170293847978,0.0164797473253,-1.75042805495e-05,0.189386487007,-9.68053245544,1.1005834341
1560000084146315575,-0.0175209287554,0.0179562068683,-1.75042805495e-05,0.150619551539,-9.70078468323,1.06173360348
1560000084150231600,-0.0189985266467,0.0192081648856,-1.75042805495e-05,0.150624796748,-9.68098258972,1.04166615009
1560000084154148817,-0.0210115872324,0.0174628347158,-1.75042805495e-05,0.170812770724,-9.70096492767,1.04135334492
1560000084158065081,-0.0210115872324,0.0174628347158,-1.75042805495e-05,0.191330939531,-9.7013053894,1.00103747845
1560000084161981106,-0.0192662589252,0.0174628347158,-0.00176283356268,0.193595066667,-9.7420425415,0.901623368263
1560000084165897369,-0.0175209287554,0.0174628347158,-0.00350816268474,0.194575175643,-9.72272491455,0.821748971939
1560000084169813633,-0.0163547718179,0.0162966777783,-0.00234200644728,0.158376276493,-9.86308956146,0.743819594383
1560000084173729658,-0.0140302702785,0.0153118730991,-1.75042805495e-05,0.137868613005,-9.82314109802,0.744000434875
1560000084177645922,-0.0126398580827,0.0139721762389,-0.00140791651109,0.159193918109,-9.84368991852,0.673913061619
1560000084181562901,-0.01228494104,0.0122268470004,-0.00176283356268,0.238997191191,-9.8241186142,0.632130980492
1560000084185478210,-0.01228494104,0.00899851255591,-0.000148666300051,0.279708564281,-9.82463932037,0.571434736252
1560000084189394236,-0.0105396118015,0.00958956812202,-1.75042805495e-05,0.339302867651,-9.86429977417,0.610235571861
1560000084193310499,-0.0086088327498,0.0121341220938,-0.00167010865375,0.300541192293,-9.86474895477,0.551318287849
1560000084197227716,-0.00314752254703,0.0083254162229,-1.75042805495e-05,0.203123256564,-9.96464443207,0.534265995026
1560000084201143742,-0.00213001147367,0.00556257591106,-1.75042805495e-05,0.182605087757,-9.96430397034,0.574581861496
1560000084205060005,-0.00355829484761,0.00829283512689,-0.001319480155,0.222341626883,-9.96433925629,0.573692440987
1560000084208976269,0.000473925807176,0.00993995557407,-0.00122127136126,0.241570532322,-9.92442703247,0.57298386097
1560000084212891340,0.00320340117225,0.00873618852347,-1.75042805495e-05,0.279692798853,-9.88404941559,0.631637334824
1560000084216807604,0.00593308561407,0.00873618852347,-1.75042805495e-05,0.297632396221,-9.80388355255,0.67053604126
1560000084220723629,0.00865900982171,0.00874034255914,-1.75042805495e-05,0.237382978201,-9.78370380402,0.691673874855
1560000084224640846,0.00865900982171,0.0104815177619,-1.75042805495e-05,0.176321133971,-9.76312065125,0.762650847435
1560000084228557110,0.00865900982171,0.0102527747421,-1.75042805495e-05,0.176635563374,-9.80288887024,0.782850265503
1560000084232473135,0.00865900982171,0.00752266773035,-1.75042805495e-05,0.232681721449,-9.74175453186,0.940605044365
1560000084236390352,0.0108581611842,0.004791707983,-1.75042805495e-05,0.31214427948,-9.78143215179,0.978960990906
1560000084240306377,0.0135875746258,0.00350020104088,-1.75042805495e-05,0.310535281897,-9.72121524811,1.01843655109
1560000084244223595,0.0156403258443,0.00660204868519,-1.75042805495e-05,0.290981471539,-9.76096439362,1.03908073902
1560000084248140812,0.0156403258443,0.0103998954113,-1.75042805495e-05,0.268686592579,-9.72012996674,1.14890730381
1560000084252056837,0.0129921607544,0.0122268470004,-1.75042805495e-05,0.227993607521,-9.65029716492,1.139367342
1560000084255974054,0.0120067039113,0.0103385533746,-1.75042805495e-05,0.186485618353,-9.58996391296,1.18970000744
1560000084259890318,0.0104043390602,0.0076083629602,-1.75042805495e-05,0.184221491218,-9.54922676086,1.28911411762
1560000084263807297,0.0104043390602,0.006990859285,-0.000384758556172,0.162424534559,-9.46902751923,1.32890224457
1560000084267724514,0.00905151376183,0.00834368458335,-0.0031156587708,0.182282298803,-9.50865077972,1.3685926199
1560000084271641731,0.00632060440799,0.00873618852347,-0.00116975737259,0.181637659669,-9.48852443695,1.38839626312
1560000084275558949,0.00358960783879,0.00873618852347,-1.75042805495e-05,0.160799786448,-9.46821975708,1.42858028412
1560000084279475212,0.00167769286782,0.00442778625701,-1.75042805495e-05,0.122022353113,-9.52807712555,1.42986559868
1560000084283391476,-6.76363852108e-05,9.54246752372e-06,-1.75042805495e-05,0.112413145602,-9.52822971344,1.4101524353
1560000084287308455,-0.00215325891737,0.00105235372599,-1.75042805495e-05,0.122986681759,-9.56816768646,1.41019392014
1560000084291224718,-0.005585396659,0.00147309911631,-1.75042805495e-05,0.18453066051,-9.60879707336,1.32938098907
1560000084295141935,-0.00831680207028,9.54246752372e-06,-0.00128535305799,0.205703988671,-9.58965873718,1.22912633419
1560000084299058914,-0.0110471081089,9.54246752372e-06,-0.00176283356268,0.206034198403,-9.57001781464,1.1891232729
1560000084302975178,-0.0137772566414,9.54246752372e-06,-0.00176283356268,0.166942298412,-9.59010791779,1.17020905018
1560000084306891203,-0.0147616188742,0.00147224047989,-0.00176283356268,0.147891655564,-9.5706911087,1.10074734688
1560000084310807467,-0.0174916825165,0.00521628382714,-0.00176283356268,0.149820312858,-9.6508731842,1.06140387058
1560000084314724684,-0.0184772628544,0.0023765293552,-0.00176283356268,0.171792849898,-9.68164730072,0.961479067802
1560000084318640709,-0.0192662589252,-0.000185786882225,-0.00350816268474,0.192950427532,-9.72191619873,0.921426892281
1560000084322556973,-0.0192662589252,-0.00173578679096,-0.00232799216883,0.235270798206,-9.78265380859,0.821255326271
1560000084326472998,-0.0192662589252,-0.00306215695533,-1.75042805495e-05,0.23591542244,-9.80277919769,0.801451683044
1560000084330389261,-0.0178618826856,-0.000331411284642,-0.00142187980589,0.237058013678,-9.78354263306,0.711609482765
1560000084334305525,-0.0168775010451,0.00350020104088,-0.00286473536073,0.219128921628,-9.82410144806,0.632575750351
1560000084338221550,-0.0157755985856,0.00512848741046,-0.00176283356268,0.260165244341,-9.8247833252,0.551943898201
1560000084342137814,-0.0131626757214,0.00263260642592,-0.0026304280619,0.240946888924,-9.82508850098,0.51251745224
1560000084346053600,-0.012178372752,-9.70258216719e-05,-0.00176283356268,0.241586267948,-9.8650188446,0.512781262398
1560000084349969864,-0.00944811625353,-0.00282728226613,-0.00176283356268,0.282612115145,-9.90530776978,0.472284466028
1560000084353887320,-0.00846243226585,-0.00140393648997,-0.00209468383773,0.302160680294,-9.8853597641,0.471707820892
1560000084357803106,-0.00573318482967,0.00132531094733,-0.00219239427761,0.321373790503,-9.9048576355,0.531201779842
1560000084361719370,-0.00244725340524,0.00350020104088,-0.00176283356268,0.321384310722,-9.86525154114,0.491066724062
1560000084365636826,-6.76363852108e-05,0.000417822106312,-0.00176283356268,0.280672907829,-9.86473178864,0.551762998104
1560000084369552851,0.00167769286782,9.54246752372e-06,-0.00254306137243,0.241250813007,-9.90446281433,0.572851896286
1560000084373468876,0.00167769286782,9.54246752372e-06,-0.00174339114189,0.259525865316,-9.78485393524,0.551680088043
1560000084377384901,0.00268160212754,-0.000994366803711,-1.75042805495e-05,0.277433902025,-9.82350826263,0.710983872414
1560000084381121397,0.0054125545156,-0.00547064855516,-1.75042805495e-05,0.356105148792,-9.78356838226,0.718908905983
1560000084385037422,0.00691368058324,-0.0069717746228,-1.75042805495e-05,0.374359190464,-9.74317264557,0.778007030487
1560000084388953686,0.00865900982171,-0.00475799973764,-1.75042805495e-05,0.27339309454,-9.74227523804,0.879908800125
1560000084392870665,0.00865900982171,-0.00348111591302,-0.00147139167866,0.212813436985,-9.74173736572,0.941049695015
1560000084396786928,0.00935222073447,-0.00173578679096,-0.00106962263258,0.191005989909,-9.70114326477,1.02097296715
1560000084400702953,0.0104043390602,-0.00173578679096,-1.75042805495e-05,0.209909901023,-9.66107082367,1.04019999504
1560000084404619217,0.00948720583298,-0.00173578679096,-1.75042805495e-05,0.248671621084,-9.66062068939,1.09911727905
1560000084408535242,0.00691368058324,-0.00348111591302,-0.00160672153942,0.248192071915,-9.63067340851,1.09891939163
1560000084412451506,0.00577256116755,-0.00462223548094,-1.75042805495e-05,0.227191746235,-9.61028766632,1.14907121658
1560000084416368484,0.00478714763173,-0.00446403793282,-0.00176283356268,0.186490878463,-9.57016086578,1.16963243484
1560000084420284748,0.00342302210629,-0.000369681960376,-0.00176283356268,0.166302919388,-9.55017948151,1.16994524002
1560000084424201965,0.00342302210629,-0.000596559884761,-0.00115673120218,0.185840979218,-9.56983757019,1.20950365067
1560000084428118944,0.000240450877665,-0.0033270722925,-1.75042805495e-05,0.185846239328,-9.55003547668,1.18943607807
1560000084432035208,-0.00264383756279,-0.00265024401478,-1.75042805495e-05,0.206034198403,-9.57001781464,1.1891232729
1560000084435952187,-0.00530362408608,9.54246752372e-06,-0.00176283356268,0.245760202408,-9.60965919495,1.22836887836
1560000084439869404,-0.00530362408608,9.54246752372e-06,-0.000706795424651,0.266608595848,-9.59035873413,1.14804983139
1560000084443786383,-0.00734455249183,9.54246752372e-06,-1.75042805495e-05,0.26677107811,-9.59043884277,1.13808202744
1560000084447703600,-0.0113576676844,9.54246752372e-06,-1.75042805495e-05,0.28792861104,-9.63070869446,1.09802997112
1560000084451620817,-0.0128064782612,-0.00173578679096,-1.75042805495e-05,0.249161660671,-9.65096187592,1.0591801405
1560000084455537796,-0.0140302702785,-0.00173578679096,-1.75042805495e-05,0.269839674234,-9.66128540039,1.01893019676
1560000084459455013,-0.0157755985856,-0.00348111591302,-1.75042805495e-05,0.25126594305,-9.68171787262,0.959700107574
1560000084463372231,-0.0157755985856,-0.00174891576641,-1.75042805495e-05,0.291977345943,-9.68223762512,0.899003863335
1560000084467289209,-0.0140302702785,9.54246752372e-06,-0.000989790117436,0.25385504961,-9.72261619568,0.840350389481
1560000084471206427,-0.0157755985856,0.0015421886336,-0.00176283356268,0.275012612343,-9.76288604736,0.800298333168
1560000084475122452,-0.0169722207758,9.54246752372e-06,-0.00176283356268,0.276307106018,-9.7833366394,0.740623474121
1560000084479039907,-0.0157755985856,-0.00173578679096,-0.00350816268474,0.277758866549,-9.82366943359,0.691048264503
1560000084482957125,-0.0157755985856,-0.00173578679096,-0.00208537768327,0.278099626303,-9.76442146301,0.610910177231
1560000084486873150,-0.0140302702785,-0.00107393179063,-0.00176283356268,0.258875966072,-9.78453063965,0.591551184654
1560000084490790367,-0.0140302702785,9.54246752372e-06,-0.00176283356268,0.300541192293,-9.86474895477,0.551318287849
1560000084494707346,-0.0131430654947,0.00175487168599,-1.75042805495e-05,0.299907058477,-9.80501461029,0.530986905098
1560000084498623610,-0.0102869293587,9.54246752372e-06,-0.000143845505088,0.281003117561,-9.84508991241,0.511759877205
1560000084502540588,-0.00593724695305,9.54246752372e-06,-0.00176283356268,0.280992597342,-9.88469600677,0.551894903183
1560000084506457806,-0.00530362408608,9.54246752372e-06,-0.00141071002925,0.281003117561,-9.84508991241,0.511759877205
1560000084510375023,-0.00396607594051,9.54246752372e-06,-1.75042805495e-05,0.260484963655,-9.84474849701,0.552075862885
1560000084514292002,-0.0029810623881,0.000586774920413,-1.75042805495e-05,0.240296989679,-9.82476520538,0.55238866806
1560000084518209219,-0.00181296560913,0.000192168091989,-1.75042805495e-05,0.259195655584,-9.80449485779,0.591683149338
1560000084522126198,-0.00101045985431,9.54246752372e-06,-1.75042805495e-05,0.218484282494,-9.80397415161,0.652379393578
1560000084526042461,-6.76363852108e-05,9.54246752372e-06,-5.9395831339e-05,0.217200264335,-9.74391937256,0.671919226646
1560000084529959679,-6.76363852108e-05,9.54246752372e-06,-0.000735377421129,0.256124436855,-9.7435503006,0.720868706703
1560000084533876657,0.00167769286782,9.54246752372e-06,-1.75042805495e-05,0.194569915533,-9.74252700806,0.841816544533
1560000084537792921,0.00167769286782,9.54246752372e-06,-1.75042805495e-05,0.194575175643,-9.72272491455,0.821748971939
1560000084541710854,0.00342302210629,0.000502249926771,-0.00176283356268,0.232047587633,-9.68202209473,0.920273661613
1560000084545627117,0.00342302210629,0.00175487168599,-0.000285313004669,0.211518898606,-9.72128868103,1.00072467327
1560000084549544334,0.00270547234197,0.00247242149817,-1.75042805495e-05,0.210234850645,-9.66123199463,1.02026438713
1560000084553461313,-2.50958534616e-05,0.00350020104088,-1.75042805495e-05,0.229623585939,-9.63130187988,1.01962172985
1560000084557377577,-6.76363852108e-05,0.000812879045942,-0.000820840888272,0.208780482411,-9.63080024719,1.07987332344
1560000084561294794,-6.76363852108e-05,-0.000173083161129,-1.75042805495e-05,0.208135843277,-9.61067390442,1.09967696667
1560000084565212011,-6.76363852108e-05,-0.00173578679096,-1.75042805495e-05,0.247227758169,-9.5905828476,1.11859118938
1560000084569128990,-6.76363852108e-05,-0.00214357854827,-1.75042805495e-05,0.228004127741,-9.61069107056,1.09923219681
1560000084573045254,-0.00146020949264,-0.00348111591302,-1.75042805495e-05,0.227684408426,-9.59072589874,1.09910035133
1560000084576961517,-0.00244483487281,-0.00173578679096,-1.75042805495e-05,0.248186826706,-9.65047740936,1.11898696423
1560000084580877542,-0.00355829484761,-0.000119408977141,-1.75042805495e-05,0.228643506765,-9.65062046051,1.09949612617
1560000084584793806,-0.00615975410998,0.000865672481611,-1.75042805495e-05,0.227684408426,-9.59072589874,1.09910035133
1560000084588709831,-0.0088898323533,0.00175487168599,-0.000113054073205,0.209260001779,-9.66074752808,1.08007121086
1560000084592627048,-0.0105396118015,0.000674303622415,-0.00176283356268,0.228654026985,-9.61101436615,1.05936098099
1560000084596543074,-0.01228494104,9.54246752372e-06,-0.00144281168086,0.250136524439,-9.65144729614,0.999373435974
1560000084600460291,-0.01228494104,9.54246752372e-06,-1.75042805495e-05,0.29035782814,-9.66162586212,0.978614211082
1560000084604376316,-0.0128295355877,0.000554137008993,-1.75042805495e-05,0.292616724968,-9.72216701508,0.899267673492
1560000084608292580,-0.0155595722047,0.00328417453024,-1.75042805495e-05,0.253535360098,-9.70265102386,0.840218424797
1560000084612209558,-0.0175209287554,0.00196109453942,-1.75042805495e-05,0.234956383705,-9.7428855896,0.801055908203
1560000084616125822,-0.0157671199032,9.54246752372e-06,-9.02559380073e-06,0.235291838646,-9.70344161987,0.740985155106
1560000084620043039,-0.0130361441184,9.54246752372e-06,0.00172782491427,0.237068533897,-9.7439365387,0.671474456787
1560000084623960018,-0.0125190807973,0.00198901145889,-0.000251644043685,0.257906377316,-9.76424217224,0.631290495396
1560000084627876282,-0.0140302702785,0.00350020104088,-0.00298180424343,0.278099626303,-9.76442146301,0.610910177231
1560000084631793261,-0.0140302702785,0.00350020104088,-0.00304934632038,0.239977270365,-9.80480003357,0.552256703377
1560000084635710478,-0.0140302702785,0.00205584207407,-0.00031847465608,0.260160028934,-9.84458637238,0.572011351585
1560000084639627695,-0.0105396118015,0.00175487168599,-1.75042805495e-05,0.240312755108,-9.76535511017,0.492186069489
1560000084643544674,-0.00887039059959,0.00509331397849,-1.75042805495e-05,0.2611348629,-9.8450717926,0.512204647064
1560000084647461891,-0.0105396118015,0.00524553004652,-0.00176283356268,0.260820418596,-9.80530261993,0.492005169392
1560000084651379824,-0.0103892095667,0.00334979879605,-1.75042805495e-05,0.281333297491,-9.82544803619,0.471756756306
1560000084655296087,-0.00765947808043,0.00175487168599,-1.75042805495e-05,0.28068870306,-9.80532073975,0.491560429335
1560000084659213305,-0.00530362408608,0.00562072874043,-0.00176283356268,0.28101888299,-9.7856798172,0.451557338238
1560000084663130283,-0.00394315494696,0.006990859285,-0.00176283356268,0.240962654352,-9.76567840576,0.452314913273
1560000084667047501,-0.00121268113287,0.00404496112402,-1.75042805495e-05,0.240627169609,-9.80512332916,0.512385487556
1560000084670964718,-6.76363852108e-05,0.00175487168599,-1.75042805495e-05,0.28069922328,-9.76571464539,0.451425433159
1560000084674881935,-0.000893689041934,0.00432625359429,-0.00176283356268,0.299587368965,-9.78505039215,0.530854940414
1560000084678799152,-0.00181296560913,0.00524553004652,-0.00344249278662,0.29894271493,-9.76492404938,0.550658643246
1560000084682715178,-0.000762510952605,0.00314462078602,-0.00176283356268,0.318161070347,-9.7646188736,0.590085089207
1560000084686632395,-6.76363852108e-05,0.00233642633236,-1.75042805495e-05,0.277140527964,-9.70452785492,0.61051440239
1560000084690549374,-6.76363852108e-05,0.00779796890005,-1.75042805495e-05,0.255967199802,-9.72366714478,0.710769057274
1560000084694465637,-6.76363852108e-05,0.0122268470004,-1.75042805495e-05,0.255165338516,-9.6836566925,0.720472931862
1560000084698382854,-6.76363852108e-05,0.0107259836925,-1.75042805495e-05,0.254685819149,-9.65370941162,0.720275044441
1560000084702299833,-6.76363852108e-05,0.006990859285,-0.00176283356268,0.254515439272,-9.68333339691,0.760344147682
1560000084706217051,-6.76363852108e-05,0.006990859285,-0.00176283356268,0.294102668762,-9.63377952576,0.719253659248
1560000084710134029,-6.76363852108e-05,0.00524553004652,-1.75042805495e-05,0.293447494507,-9.65326023102,0.779192328453
1560000084714051247,-0.00376453722918,0.00719710166656,-1.75042805495e-05,0.29424148798,-9.72297477722,0.799589753151
1560000084717968464,-0.00530362408608,0.00992794632251,-1.75042805495e-05,0.234167665243,-9.65336799622,0.760591030121
1560000084721884489,-0.00398922399036,0.0104815177619,-1.75042805495e-05,0.255173236132,-9.6539516449,0.690371632576
1560000084725801706,-0.00671995931123,0.0118978529871,-1.75042805495e-05,0.256148070097,-9.65443706512,0.630564928055
1560000084729717731,-0.00770426208204,0.0104815177619,-0.000672813054427,0.276176184416,-9.66443729401,0.630186140537
1560000084733635902,-0.00715282245224,0.0104815177619,-0.00176283356268,0.27682608366,-9.6647605896,0.590314984322
1560000084737553120,-0.00616723207118,0.0104815177619,-0.00262644149017,0.277465462685,-9.70468997955,0.590578794479
1560000084741470098,-0.00542559586425,0.0122268470004,-0.00164086178146,0.258572071791,-9.70515632629,0.531216740608
1560000084745387554,-0.00815632280638,0.0133342164822,-0.00112487379007,0.238709032536,-9.68533611298,0.511593937874
1560000084749304533,-0.00879428256303,0.015717504546,-0.00176283356268,0.258897006512,-9.70531845093,0.511281132698
1560000084753221750,-0.00746156460145,0.0143847872956,-0.00176283356268,0.25856679678,-9.72496032715,0.551284313202
1560000084757138968,-0.00647592909791,0.0116538227738,-0.00176283356268,0.219149962068,-9.74488925934,0.552305698395
1560000084761055946,-0.00530362408608,0.0104815177619,-0.00176283356268,0.219170972705,-9.66567707062,0.472035586834
1560000084764973164,-0.00784708892805,0.0147703114165,-1.75042805495e-05,0.240003615618,-9.70578479767,0.451919138432
1560000084768890142,-0.0105778317023,0.0156410647648,-1.75042805495e-05,0.299608409405,-9.70583820343,0.450584888458
1560000084772807360,-0.01228494104,0.0122268470004,-1.75042805495e-05,0.240323275328,-9.72574996948,0.45205104351
1560000084776724577,-0.01228494104,0.0122268470004,-1.75042805495e-05,0.181038171053,-9.74566173553,0.453517198563
1560000084780641556,-0.0110361634318,0.0109780693922,-1.75042805495e-05,0.161484330893,-9.78541183472,0.474161326885
1560000084784558773,-0.00830537768675,0.00775837877091,-1.75042805495e-05,0.160535752773,-9.68591117859,0.433630555868
1560000084788475990,-0.0055747948105,0.00524553004652,-1.75042805495e-05,0.202515408397,-9.80589580536,0.413597017527
1560000084792392969,-0.00355829484761,0.00421448626578,-1.75042805495e-05,0.201876029372,-9.76596641541,0.413333177567
1560000084796309233,-0.00355829484761,0.00524553004652,-1.75042805495e-05,0.182002484798,-9.78575229645,0.433845430613
1560000084800226212,-0.00530362408608,0.00524553004652,-1.75042805495e-05,0.182332709432,-9.76611042023,0.393842339516
1560000084804143667,-0.00512432238504,0.00157556998701,-1.75042805495e-05,0.161505371332,-9.70619869232,0.393891274929
1560000084808060646,-0.00355829484761,-0.00115495212544,-1.75042805495e-05,0.163439288735,-9.76657772064,0.334480285645
1560000084811977863,-0.00181296560913,-0.00388541794331,-0.00176283356268,0.182007759809,-9.76594924927,0.413777917624
1560000084815895081,-0.00181296560913,-0.00522644538432,-0.00176283356268,0.181682795286,-9.76578712463,0.433713525534
1560000084819812059,-0.00181296560913,-0.00522644538432,-0.00176283356268,0.200906440616,-9.74567890167,0.453072428703
1560000084823729277,-0.00342801430443,-0.00684149407962,-0.000147784826985,0.181038171053,-9.74566173553,0.453517198563
1560000084827646494,-0.00355829484761,-0.00782715583519,-1.75042805495e-05,0.199611902237,-9.72523021698,0.51274728775
1560000084831563473,-0.00181296560913,-0.00871710386127,-0.000112260024641,0.199611902237,-9.72523021698,0.51274728775
1560000084835480690,-0.000732563440579,-0.00979750603883,-0.000682431358094,0.199611902237,-9.72523021698,0.51274728775
1560000084839397669,-0.00149241497724,-0.0104624330997,-0.0014422829201,0.179748892784,-9.70540904999,0.493124514818
1560000084843314886,-6.76363852108e-05,-0.0117683962874,-1.75042805495e-05,0.219160482287,-9.70528316498,0.512170672417
1560000084847230911,-0.000612895888465,-0.0122077623382,-1.75042805495e-05,0.218190863729,-9.68499565125,0.551909923553
1560000084851148129,-0.00334345203976,-0.0122077623382,-1.75042805495e-05,0.257272273302,-9.70450973511,0.610959112644
1560000084855064392,-0.00355829484761,-0.0122077623382,-1.75042805495e-05,0.277465462685,-9.70468997955,0.590578794479
1560000084858981371,-0.00355829484761,-0.0139530915767,-1.75042805495e-05,0.257602453232,-9.68486881256,0.570955991745
1560000084862897635,-0.00256364611068,-0.0139530915767,-1.75042805495e-05,0.256952553988,-9.68454551697,0.610827207565
1560000084866813660,-6.76363852108e-05,-0.0137189517259,-0.000251644137187,0.237079054117,-9.70433044434,0.631339430809
1560000084870729923,-0.00128660713711,-0.0109887915762,-0.00176283356268,0.276495873928,-9.68440246582,0.630318045616
1560000084874646902,-0.00530362408608,-0.0109210828517,-0.00130418379928,0.316877096891,-9.70456314087,0.609624862671
1560000084878563166,-0.00530362408608,-0.0136511531243,-1.75042805495e-05,0.298308610916,-9.70519161224,0.530327320099
1560000084882480383,-0.00530362408608,-0.0139530915767,-1.75042805495e-05,0.297344237566,-9.66510105133,0.549998998642
1560000084886395454,-0.00530362408608,-0.0139530915767,-1.75042805495e-05,0.29733902216,-9.68490409851,0.570066571236
1560000084890312672,-0.00621126866873,-0.013045446994,-1.75042805495e-05,0.297658711672,-9.70486831665,0.57019841671
1560000084894228697,-0.00530362408608,-0.0120608642064,-1.75042805495e-05,0.277151048183,-9.66492176056,0.570379376411
1560000084898144960,-0.00530362408608,-0.0104624330997,-1.75042805495e-05,0.259541660547,-9.7254447937,0.491477489471
1560000084902060986,-0.00567450051803,-0.00834622742932,-1.75042805495e-05,0.259221971035,-9.70547962189,0.49134555459
1560000084905978203,-0.00704895332456,-0.0069717746228,-1.75042805495e-05,0.279420435429,-9.68585681915,0.450897723436
1560000084909895182,-0.00704895332456,-0.00871710386127,-1.75042805495e-05,0.300242513418,-9.76557064056,0.47091627121
1560000084913811445,-0.00704895332456,-0.00871710386127,-1.75042805495e-05,0.260516494513,-9.72592926025,0.431670725346
1560000084917728424,-0.00704895332456,-0.00615087337955,-1.75042805495e-05,0.261161148548,-9.74605560303,0.411867022514
1560000084921644688,-0.00524313041949,-0.00348111591302,-1.75042805495e-05,0.261800527573,-9.78598499298,0.412130892277
1560000084925560713,-0.00355829484761,-0.00348111591302,-1.75042805495e-05,0.300577998161,-9.72612667084,0.410845637321
1560000084929476976,-0.00558794819854,-0.00173578679096,-1.75042805495e-05,0.301547586918,-9.74641418457,0.371106386185
1560000084933394194,-0.00831879760302,-0.00173578679096,-0.00128734859077,0.281343817711,-9.78584098816,0.431621730328
1560000084937311172,-0.00704895332456,-0.00173578679096,-0.00176283356268,0.261811047792,-9.74637889862,0.371995866299
1560000084941227436,-0.0055545712071,-0.00173578679096,-0.00176283356268,0.2807097435,-9.7261095047,0.411290377378
1560000084945143461,-0.00282446911283,-0.00348111591302,-0.000751330033678,0.281024158001,-9.76587581635,0.431489825249
1560000084949059725,-9.4888531744e-05,-0.0017630389359,-0.00176283356268,0.320446252823,-9.72614479065,0.410400897264
1560000084952975750,-6.76363852108e-05,9.54246752372e-06,-1.75042805495e-05,0.281349122524,-9.76603794098,0.411554217339
1560000084956892967,-0.00181296560913,9.54246752372e-06,-1.75042805495e-05,0.280704438686,-9.74591159821,0.431357890368
1560000084960808992,-0.00181296560913,9.54246752372e-06,-1.75042805495e-05,0.261166393757,-9.72625255585,0.391799509525
1560000084964725256,-0.00181296560913,0.000431327677313,-1.75042805495e-05,0.339984327555,-9.74580383301,0.449959278107
1560000084968640327,-0.000407131084799,0.00175487168599,-1.75042805495e-05,0.319796353579,-9.72582149506,0.450272083282
1560000084972556591,-6.76363852108e-05,0.00350020104088,-0.000662925482397,0.318826794624,-9.70553302765,0.490011334419
1560000084976472616,-0.00169729678444,0.00350020104088,-0.00176283356268,0.31849655509,-9.72517490387,0.530014514923
1560000084980387926,-0.000944538671109,0.00088644475068,-1.75042805495e-05,0.298319101334,-9.66558551788,0.490192234516
1560000084984303951,-6.76363852108e-05,0.000117555714398,-1.75042805495e-05,0.298308610916,-9.70519161224,0.530327320099
1560000084988221169,-6.76363852108e-05,0.00503490784764,-1.75042805495e-05,0.318171590567,-9.72501373291,0.549950063229
1560000084992137194,-0.00214547253029,0.0104815177619,-1.75042805495e-05,0.27812063694,-9.68521022797,0.530640125275
1560000084996053457,-0.00487572495676,0.00916408765279,-1.75042805495e-05,0.297988921404,-9.6852273941,0.530195355415
1560000084999969482,-0.00244572711384,0.006990859285,-0.000573788163665,0.298947989941,-9.7451210022,0.530591130257
1560000085003885746,-6.76363852108e-05,0.00544975805254,-0.00176283356268,0.27812063694,-9.68521022797,0.530640125275
1560000085007801771,-0.00162867837635,0.00680657204417,-0.00176283356268,0.277800947428,-9.66524505615,0.530508160591
1560000085011718988,-0.00530362408608,0.0105024552169,-0.00176283356268,0.258247107267,-9.70499515533,0.551152348518
1560000085015635252,-0.00530362408608,0.0112212754938,-0.000757262030925,0.258252352476,-9.68519210815,0.531084835529
1560000085019551277,-0.00505877971463,0.0104815177619,-1.75042805495e-05,0.258247107267,-9.70499515533,0.551152348518
1560000085023467541,-0.00355829484761,0.0104815177619,-1.75042805495e-05,0.258241862059,-9.72479820251,0.571219861507
1560000085027384520,-0.00530362408608,0.00779785298199,-0.000486672063024,0.25858259201,-9.66555023193,0.49108171463
1560000085031300783,-0.00530362408608,0.00379095068788,-0.00176283356268,0.298633545637,-9.70535373688,0.510391712189
1560000085035217762,-0.00460944802196,0.00175487168599,-1.75042805495e-05,0.339323908091,-9.78508663177,0.529965519905
1560000085039134026,-0.00523746189266,0.00343403884304,-1.75042805495e-05,0.238229513168,-9.65538883209,0.511396050453
1560000085043051243,-0.00622223610355,0.00524553004652,-1.75042805495e-05,0.257922172546,-9.7048330307,0.571087956429
1560000085046967268,-0.00704895332456,0.00730725461793,-0.000175701950972,0.278435081244,-9.72497844696,0.550839543343
1560000085050884485,-0.00704895332456,0.0104815177619,-0.00061928507796,0.257447868586,-9.65508365631,0.550822496414
1560000085054800510,-0.00704895332456,0.00835334322547,-1.75042805495e-05,0.198002919555,-9.66501235962,0.552222728729
1560000085058717728,-0.00704895332456,0.00562257917914,-1.75042805495e-05,0.259531140327,-9.76504993439,0.53161251545
1560000085062633753,-0.00704895332456,0.00289239301383,-0.000625312282261,0.280075579882,-9.66637611389,0.390959024429
1560000085066550970,-0.00864156814524,0.00175487168599,-0.000170218702162,0.200906440616,-9.74567890167,0.453072428703
1560000085070468187,-0.00704895332456,0.00433314612617,-1.75042805495e-05,0.20154581964,-9.78560829163,0.453336298466
1560000085074385166,-0.00704895332456,0.00706397588867,-1.75042805495e-05,0.160850211978,-9.72567939758,0.453830003738
1560000085078300476,-0.00704895332456,0.00662177679879,0.00103970155535,0.132976457477,-9.80583381653,0.415153592825
1560000085082217455,-0.00530362408608,0.00116079483965,0.00172782491427,0.142931640148,-9.72663116455,0.334661185741
1560000085086132765,-0.00530362408608,-0.00301682509245,0.000446786559376,0.144855037332,-9.82661533356,0.315385192633
1560000085090050697,-0.00407978227277,-0.00295962852264,-1.75042805495e-05,0.202206239104,-9.74632549286,0.373330056667
1560000085093967915,-0.00681049355547,-0.000228917304293,-1.75042805495e-05,0.223358526826,-9.80639839172,0.353345513344
1560000085097883940,-0.00630249780728,9.54246752372e-06,-1.75042805495e-05,0.222719147801,-9.76646900177,0.353081643581
1560000085101802349,-0.00530362408608,-0.00172331923701,-1.75042805495e-05,0.181693330407,-9.72618198395,0.393578469753
1560000085105718613,-0.00433190975738,-0.00445283037135,-0.00176283356268,0.182327449322,-9.78591442108,0.413909852505
1560000085109635592,-0.00160101231545,-0.00522644538432,-0.00176283356268,0.181368380785,-9.72602081299,0.413514077663
1560000085113551855,-6.76363852108e-05,-0.00642334727365,-0.00176283356268,0.221744298935,-9.76598453522,0.41288843751
1560000085117468834,-6.76363852108e-05,-0.0069717746228,-0.00176283356268,0.320435732603,-9.76574993134,0.450535953045
1560000085121385098,-6.76363852108e-05,-0.0069717746228,-0.00176283356268,0.339009463787,-9.74531936646,0.509766101837
1560000085125302076,0.00167769286782,-0.0069717746228,-0.00284668592402,0.238714307547,-9.66553211212,0.491526454687
1560000085129218340,0.00167769286782,-0.0053255227286,-0.00176283356268,0.200570970774,-9.78512382507,0.513143062592
1560000085133134604,-6.76363852108e-05,-0.00522644538432,-0.00176283356268,0.238714307547,-9.66553211212,0.491526454687
1560000085137050629,-0.00168816825249,-0.00522644538432,-0.00176283356268,0.317526996136,-9.70488643646,0.569753706455
1560000085140966892,-6.76363852108e-05,-0.00633602093211,-0.00176283356268,0.277145773172,-9.68472576141,0.590446829796
1560000085144883871,-6.76363852108e-05,-0.0069717746228,-0.00176283356268,0.297658711672,-9.70486831665,0.57019841671
1560000085148801088,-6.76363852108e-05,-0.0069717746228,-0.000428150551131,0.276341289282,-9.6546163559,0.610184550285
1560000085152718067,-6.76363852108e-05,-0.00522644538432,-1.75042805495e-05,0.27681556344,-9.70436668396,0.6304500103
1560000085156635284,-6.76363852108e-05,-0.00522644538432,-1.75042805495e-05,0.296694338322,-9.66477775574,0.589870214462
1560000085160552502,-0.00435859072899,-0.00522644538432,-0.000817800181945,0.237409234047,-9.68468952179,0.591336369514
1560000085164468527,-0.00526390466326,-0.00526616480715,-1.75042805495e-05,0.256307929754,-9.66441917419,0.630630850792
1560000085168385744,-0.00253320503828,-0.0069717746228,-1.75042805495e-05,0.197997659445,-9.6848154068,0.572290182114
1560000085172301769,-0.00382247159891,-0.0067075978715,-1.75042805495e-05,0.316237688065,-9.66463375092,0.609361052513
1560000085176218987,-0.00530362408608,-0.00522644538432,-1.75042805495e-05,0.317516475916,-9.74449253082,0.609888792038
1560000085180135012,-0.00530362408608,-0.00522644538432,-1.75042805495e-05,0.336755871773,-9.66497516632,0.569045126438
1560000085184051275,-0.00530362408608,-0.00375283731406,-1.75042805495e-05,0.237414509058,-9.66488552094,0.571268796921
1560000085187967300,-0.00530362408608,-0.00419410212099,-1.75042805495e-05,0.237728953362,-9.70465373993,0.591468274593
1560000085191884518,-0.00530362408608,-0.00692505781772,-1.75042805495e-05,0.277790427208,-9.70485115051,0.570643186569
1560000085195800781,-0.00624153680204,-0.00428853254324,-1.75042805495e-05,0.318501830101,-9.70537185669,0.509946942329
1560000085199716806,-0.00687189387891,-0.00155872734328,-1.75042805495e-05,0.358227819204,-9.745013237,0.549192547798
1560000085203633070,-0.00530362408608,9.54246752372e-06,-1.75042805495e-05,0.338695049286,-9.70555114746,0.489566594362
1560000085207548141,-0.00530362408608,0.000410392729445,-1.75042805495e-05,0.239668130875,-9.74522972107,0.511989712715
1560000085211464405,-0.00530362408608,0.00036977449205,-1.75042805495e-05,0.23902875185,-9.70530033112,0.511725902557
1560000085215379477,-0.00530362408608,9.54246752372e-06,-0.000641323111028,0.259541660547,-9.7254447937,0.491477489471
1560000085219295502,-0.00530362408608,0.00161821134784,-0.00176283356268,0.359202682972,-9.74549770355,0.489385724068
1560000085223211765,-0.00530362408608,0.00175487168599,-0.000914855449826,0.360816895962,-9.78591156006,0.429842799902
1560000085227127790,-0.00530362408608,9.54246752372e-06,-1.75042805495e-05,0.299933344126,-9.70599937439,0.43064931035
1560000085231044054,-0.00530362408608,9.54246752372e-06,-1.75042805495e-05,0.261155873537,-9.76585769653,0.431934565306
1560000085234960318,-0.00499256329772,9.54246752372e-06,-1.75042805495e-05,0.221099644899,-9.74585819244,0.432692110538
1560000085238876104,-0.00226263369753,0.00130520360275,-0.00131316546304,0.240642994642,-9.74571418762,0.452182978392
1560000085242793560,-0.00234863445861,0.005781198896,-0.00176283356268,0.300567477942,-9.76573181152,0.4509806633
1560000085246708393,-0.00355829484761,0.006990859285,-0.00176283356268,0.261161148548,-9.74605560303,0.411867022514
1560000085250624657,-0.00454461172346,0.00623184692238,-0.00176283356268,0.241612553596,-9.76600170135,0.412443697453
1560000085254541636,-0.0018137968116,0.00524553004652,-0.00176283356268,0.300567477942,-9.76573181152,0.4509806633
1560000085258457899,-0.00105143063668,0.00797465354466,-0.00176283356268,0.221099644899,-9.74585819244,0.432692110538
1560000085262372971,-0.00355829484761,0.00873618852347,-0.00350816268474,0.20155107975,-9.76580429077,0.433268785477
1560000085266289234,-0.0023512435406,0.00752913721647,-0.00230111145824,0.220769450068,-9.76550006866,0.472695201635
1560000085270206213,-0.00181296560913,0.00654396993276,-0.00131594419926,0.239673376083,-9.72542667389,0.491922229528
1560000085274122477,-0.00181296560913,0.00524553004652,-1.75042805495e-05,0.279079705477,-9.74510383606,0.531035900116
1560000085278038502,-0.00181296560913,0.00766193531051,-1.75042805495e-05,0.317851930857,-9.7050485611,0.54981815815
1560000085281954765,-0.000156906153694,0.012048307462,-1.75042805495e-05,0.258897006512,-9.70531845093,0.511281132698
1560000085285869837,-6.76363852108e-05,0.00958699257425,-0.00176283356268,0.217216014862,-9.68451023102,0.611716628075
1560000085289787054,-6.76363852108e-05,0.00685620682924,-0.00162818110355,0.238693296909,-9.74474430084,0.571796536446
1560000085293703079,-6.76363852108e-05,0.00524553004652,-1.75042805495e-05,0.256797969341,-9.65476036072,0.590693712234
1560000085297619343,-6.76363852108e-05,0.00350020104088,-0.000375913024477,0.237409234047,-9.68468952179,0.591336369514
1560000085301536322,-6.76363852108e-05,0.00350020104088,-0.000419147265934,0.276501148939,-9.66459846497,0.610250532627
1560000085305453539,-0.00239695795059,0.00524553004652,-1.75042805495e-05,0.277460247278,-9.72449302673,0.610646307468
1560000085309369802,-0.00512724532912,0.00524553004652,-1.75042805495e-05,0.256952553988,-9.68454551697,0.610827207565
1560000085313285828,-0.00449577346236,0.00605338067024,-0.000825354924477,0.217216014862,-9.68451023102,0.611716628075
1560000085317203045,-0.00355829484761,0.00694283486893,-0.00176283356268,0.217061445117,-9.65472507477,0.591583192348
1560000085321119070,-0.00355829484761,0.00421302804706,-0.000730331399649,0.237073779106,-9.72413349152,0.651407003403
1560000085325036287,-0.00355829484761,0.00377283040978,-1.75042805495e-05,0.256627589464,-9.68438434601,0.630762815475
1560000085328952312,-0.00355829484761,0.00650280470088,-1.75042805495e-05,0.257597208023,-9.70467185974,0.591023564339
1560000085332868576,-0.00405532242757,0.00823916094351,-1.75042805495e-05,0.257602453232,-9.68486881256,0.570955991745
1560000085336784601,-0.00678459509491,0.006990859285,-1.75042805495e-05,0.259541660547,-9.7254447937,0.491477489471
1560000085340700865,-0.00879428256303,0.00452483172721,-0.00176283356268,0.199931591749,-9.74519443512,0.512879252434
1560000085344616890,-0.00708885005453,0.00350020104088,-5.74010115257e-05,0.180377751589,-9.7849445343,0.533523440361
1560000085348533154,-0.00261347596777,0.00350020104088,-1.75042805495e-05,0.179104223847,-9.68528366089,0.512928187847
1560000085352450371,-0.00181296560913,0.00350020104088,-1.75042805495e-05,0.220449760556,-9.74553585052,0.472563266754
1560000085356366396,-0.000643319163768,0.00350020104088,-0.00118715076492,0.220130071044,-9.72557163239,0.472431361675
1560000085360282660,-0.00181296560913,0.00390932261982,-0.00176283356268,0.241298109293,-9.72623443604,0.392244279385
1560000085364198685,-0.0032061714636,0.00385232437791,-0.00176283356268,0.220130071044,-9.72557163239,0.472431361675
1560000085368114948,-0.00419125279007,0.00112191375078,-1.75042805495e-05,0.200906440616,-9.74567890167,0.453072428703
1560000085372030973,-0.00692128244513,9.54246752372e-06,-1.75042805495e-05,0.201881289482,-9.74616336823,0.393265664577
1560000085375947237,-0.00530362408608,9.54246752372e-06,-1.75042805495e-05,0.222069248557,-9.76614570618,0.392952859402
1560000085379691362,-0.00530362408608,9.54246752372e-06,-1.75042805495e-05,0.241287589073,-9.76583957672,0.432379305363
1560000085383608580,-0.00530362408608,9.54246752372e-06,-1.75042805495e-05,0.261155873537,-9.76585769653,0.431934565306
1560000085387524605,-0.00355829484761,9.54246752372e-06,-1.75042805495e-05,0.260186284781,-9.74557113647,0.471673816442
1560000085391440868,-0.00355829484761,0.00131513219074,-1.75042805495e-05,0.22110491991,-9.72605609894,0.412624597549
1560000085395356894,-0.00301324285158,9.54246752372e-06,-1.75042805495e-05,0.220449760556,-9.74553585052,0.472563266754
1560000085399274111,-0.00334293318961,9.54246752372e-06,-1.75042805495e-05,0.220769450068,-9.76550006866,0.472695201635
1560000085403190136,-0.00355829484761,-0.00173578679096,-1.75042805495e-05,0.260196805,-9.70596408844,0.431538790464
1560000085407106400,-0.00180382603375,-0.00173578679096,-1.75042805495e-05,0.280049324036,-9.76539134979,0.491296589375
1560000085411022425,-6.76363852108e-05,-0.00173578679096,-0.00101110679779,0.279090225697,-9.7054977417,0.490900814533
1560000085414939642,-6.76363852108e-05,-0.00173578679096,-0.00152910309912,0.258252352476,-9.68519210815,0.531084835529
1560000085418855667,-0.00128591060993,-0.00173578679096,-1.75042805495e-05,0.277470737696,-9.68488693237,0.570511221886
1560000085422771692,-0.00355829484761,-0.0012784672064,-1.75042805495e-05,0.257922172546,-9.7048330307,0.571087956429
1560000085426687956,-0.00355829484761,9.54246752372e-06,-1.75042805495e-05,0.257922172546,-9.7048330307,0.571087956429
1560000085430603981,-0.00181296560913,0.00107322441077,-1.75042805495e-05,0.23772367835,-9.72445678711,0.611535787582
1560000085434521198,-0.00348016296915,9.54246752372e-06,-0.00168470168227,0.257282793522,-9.66490364075,0.570824086666
1560000085438438416,-0.00886274025234,-0.00264268019436,-0.00350816268474,0.278115361929,-9.70501327515,0.550707578659
1560000085442354441,-0.00835537209626,-0.00318850894325,-0.0016165300701,0.276176184416,-9.66443729401,0.630186140537
1560000085446270466,-0.00129599727342,0.00114069124637,-1.75042805495e-05,0.257911652327,-9.74443912506,0.611222982407
1560000085450186729,0.00305225227807,0.00561629987475,-0.000388274118048,0.256797969341,-9.65476036072,0.590693712234
1560000085454101801,0.00167769286782,0.006990859285,-0.00311715450174,0.258247107267,-9.70499515533,0.551152348518
1560000085458018064,-6.76363852108e-05,0.00346380914678,-0.00116892656577,0.23901823163,-9.74490642548,0.551860928535
1560000085461934090,-0.00164637987802,9.54246752372e-06,-1.75042805495e-05,0.23564568162,-9.5946855545,0.610678315163
1560000085465851307,-0.0051947799877,-0.00173578679096,-1.75042805495e-05,0.319445133209,-9.82467460632,0.570545256138
1560000085469767332,-0.00699112443162,9.54246752372e-06,-7.53331749309e-05,0.356943815947,-9.68495750427,0.568732321262
1560000085473683596,-0.00530362408608,9.54246752372e-06,-0.000720356804425,0.317857176065,-9.68524551392,0.529750585556
1560000085477599621,-0.00530362408608,9.54246752372e-06,-1.75042805495e-05,0.278110146523,-9.72481632233,0.570775151253
1560000085481515884,-0.00657020489552,9.54246752372e-06,-1.75042805495e-05,0.277800947428,-9.66524505615,0.530508160591
1560000085485431910,-0.00654295205177,9.54246752372e-06,-1.75042805495e-05,0.298953235149,-9.72531890869,0.510523617268
1560000085489349127,-0.00530362408608,0.00150102692838,-1.75042805495e-05,0.299283444881,-9.70567703247,0.470520496368
1560000085493265152,-0.00530362408608,0.00248537424095,-0.000748006805059,0.320441007614,-9.74594688416,0.430468440056
1560000085497182369,-0.00530362408608,0.00350020104088,-0.00176283356268,0.259856075048,-9.76521205902,0.511676907539
1560000085501098394,-0.00530362408608,0.00175487168599,-1.75042805495e-05,0.259541660547,-9.7254447937,0.491477489471
1560000085505014658,-0.00530362408608,0.00194938849539,-0.00176283356268,0.280059844255,-9.72578620911,0.451161563396
1560000085508930683,-0.00530362408608,0.00232086164568,-0.000583494216647,0.319471389055,-9.7256603241,0.470207691193
1560000085512846708,-0.00530362408608,9.54246752372e-06,-1.75042805495e-05,0.299288719893,-9.68587398529,0.450452983379
1560000085516762972,-0.00530362408608,9.54246752372e-06,-1.75042805495e-05,0.260181039572,-9.76537322998,0.491741329432
1560000085520678997,-0.00291563720722,9.54246752372e-06,-1.75042805495e-05,0.259546905756,-9.70564174652,0.471409976482
1560000085524595261,-0.00344059884394,9.54246752372e-06,-1.75042805495e-05,0.299608409405,-9.70583820343,0.450584888458
1560000085528511286,-0.00181296560913,9.54246752372e-06,-0.000883771288331,0.299603134394,-9.72564220428,0.470652401447
1560000085532427549,-0.00181296560913,9.54246752372e-06,-0.000123523455592,0.260186284781,-9.74557113647,0.471673816442
1560000085536343575,-0.00181296560913,9.54246752372e-06,-0.000672210387724,0.238714307547,-9.66553211212,0.491526454687
1560000085540260792,-0.00355829484761,9.54246752372e-06,-1.75042805495e-05,0.199611902237,-9.72523021698,0.51274728775
1560000085544175863,-0.0022436896221,0.00132414767796,-1.75042805495e-05,0.25890225172,-9.68551540375,0.491213649511
1560000085548093081,-0.00125799550622,0.00350020104088,-0.00176283356268,0.239673376083,-9.72542667389,0.491922229528
1560000085552009106,-0.00160716355022,0.00196067376035,-0.00176283356268,0.2194801718,-9.72524833679,0.512302517891
1560000085555925369,-0.00355829484761,0.00175487168599,-1.75042805495e-05,0.218505322933,-9.72476291656,0.572109341621
1560000085559841394,-0.00354018055466,0.00350020104088,-1.75042805495e-05,0.219160482287,-9.70528316498,0.512170672417
1560000085563757658,-0.00181296560913,0.00350020104088,-1.75042805495e-05,0.239023476839,-9.7251033783,0.531793415546
1560000085567674637,-0.000310343349892,0.00199757866888,-1.75042805495e-05,0.257447868586,-9.65508365631,0.550822496414
1560000085571590900,-0.00181296560913,0.00350020104088,-1.75042805495e-05,0.217871174216,-9.66503047943,0.55177795887
1560000085575506926,-0.00227996054363,0.00396719591307,-1.75042805495e-05,0.238698512316,-9.72494220734,0.551729023457
1560000085579422951,-0.00355829484761,0.00524553004652,-1.75042805495e-05,0.257607728243,-9.66506576538,0.550888538361
1560000085583340168,-0.00530362408608,0.00455401263136,-0.000709021805259,0.218185633421,-9.70479774475,0.571977376938
1560000085587256193,-0.00530362408608,0.00182386051397,-0.00176283356268,0.258891761303,-9.72512149811,0.531348705292
1560000085591173410,-0.00530362408608,0.00267109432185,-0.000846610965018,0.277795672417,-9.68504905701,0.550575733185
1560000085595090628,-0.0034020310907,0.00365646477694,-0.000173768041366,0.257922172546,-9.7048330307,0.571087956429
1560000085599007607,-0.000671238888392,0.00524553004652,-0.000621106803862,0.238703817129,-9.70513820648,0.531661510468
1560000085602924824,-0.00219500082596,0.00486349488066,-0.0013807983363,0.257932692766,-9.66522693634,0.53095293045
1560000085606840849,-0.00355829484761,0.00213395164657,-1.75042805495e-05,0.239023476839,-9.7251033783,0.531793415546
1560000085610758066,-0.00355829484761,0.00175487168599,-1.75042805495e-05,0.258897006512,-9.70531845093,0.511281132698
1560000085614675045,-0.00355829484761,0.00175487168599,-1.75042805495e-05,0.238698512316,-9.72494220734,0.551729023457
1560000085618591309,-0.00438948346225,0.000923683080873,-1.75042805495e-05,0.218835532665,-9.70512104034,0.532106220722
1560000085622508287,-0.00530362408608,9.54246752372e-06,-1.75042805495e-05,0.239998310804,-9.72558879852,0.471986621618
1560000085626424551,-0.00530362408608,9.54246752372e-06,-0.00107327971671,0.259541660547,-9.7254447937,0.491477489471
1560000085630340576,-0.0038532281945,0.000304475811032,-0.00176283356268,0.240312755108,-9.76535511017,0.492186069489
1560000085634256840,-0.00530362408608,0.00175487168599,-0.000483080556699,0.239673376083,-9.72542667389,0.491922229528
1560000085638173819,-0.00530362408608,0.00123502835831,0.00120798159363,0.260186284781,-9.74557113647,0.471673816442
1560000085642090082,-0.00530362408608,9.54246752372e-06,-1.75042805495e-05,0.240642994642,-9.74571418762,0.452182978392
1560000085646007061,-0.00530362408608,-0.00173578679096,-0.00076187020573,0.260516494513,-9.72592926025,0.431670725346
1560000085649924278,-0.00530362408608,-5.75173786765e-06,-0.00176283356268,0.240962654352,-9.76567840576,0.452314913273
1560000085653840303,-0.00530362408608,0.000978707688516,-1.75042805495e-05,0.239998310804,-9.72558879852,0.471986621618
1560000085657757521,-0.00334916759597,0.00154574443675,-1.75042805495e-05,0.240003615618,-9.70578479767,0.451919138432
1560000085661673546,-0.00181296560913,9.54246752372e-06,-1.75042805495e-05,0.221099644899,-9.74585819244,0.432692110538
1560000085665590763,-0.00181296560913,0.000443756110271,-1.75042805495e-05,0.219805121422,-9.72540950775,0.492366939783
1560000085669507742,-0.00181296560913,0.00175487168599,-1.75042805495e-05,0.219805121422,-9.72540950775,0.492366939783
1560000085673424959,-0.00247228266095,9.54246752372e-06,-1.75042805495e-05,0.239343196154,-9.74506759644,0.531925320625
1560000085677340984,-0.00191421405972,9.54246752372e-06,-1.75042805495e-05,0.239673376083,-9.72542667389,0.491922229528
1560000085681258202,-0.00181296560913,9.54246752372e-06,-0.00264654883363,0.279409945011,-9.72546291351,0.491032749414
1560000085685175419,-0.00355829484761,9.54246752372e-06,-0.00350816268474,0.259211450815,-9.74508571625,0.531480610371
1560000085689092636,-0.00244882479824,9.54246752372e-06,-0.00239869270937,0.238384097815,-9.68517398834,0.531529545784
1560000085693009853,-6.76363852108e-05,9.54246752372e-06,-0.00176283356268,0.25856679678,-9.72496032715,0.551284313202
1560000085696926832,-0.00140238743426,0.0026790446616,-0.00176283356268,0.238373577595,-9.7247800827,0.571664571762
1560000085700844049,-0.00181296560913,0.00350020104088,-0.00176283356268,0.278440326452,-9.70517444611,0.530771970749
1560000085704761028,-0.00181296560913,0.00193972833271,-0.00332330606268,0.277790427208,-9.70485115051,0.570643186569
1560000085708677292,-0.0043581406624,9.54246752372e-06,-0.000962987727882,0.258247107267,-9.70499515533,0.551152348518
1560000085712594271,-0.00351857919987,9.54246752372e-06,-1.75042805495e-05,0.258252352476,-9.68519210815,0.531084835529
1560000085716511488,-0.00283808481594,9.54246752372e-06,-1.75042805495e-05,0.257922172546,-9.7048330307,0.571087956429
1560000085720428467,-0.00355829484761,9.54246752372e-06,-1.75042805495e-05,0.258252352476,-9.68519210815,0.531084835529
1560000085724344730,-0.00355829484761,0.00125929204462,-1.75042805495e-05,0.278115361929,-9.70501327515,0.550707578659
1560000085728261709,-0.00404817673299,9.54246752372e-06,-0.000997268030899,0.238703817129,-9.70513820648,0.531661510468
1560000085732177973,-0.00530362408608,9.54246752372e-06,-0.00350816268474,0.23902875185,-9.70530033112,0.511725902557
1560000085736094952,-0.0045889680949,0.000724198450515,-0.00104817755362,0.278765261173,-9.70533657074,0.510836422443
1560000085740012169,-0.00525825867103,0.00345483562281,-1.75042805495e-05,0.259216696024,-9.72528362274,0.511413097382
1560000085743928432,-0.00355829484761,0.00430628747525,-1.75042805495e-05,0.258252352476,-9.68519210815,0.531084835529
1560000085747845411,-0.00373749886646,0.00175487168599,-0.000196708303887,0.259536385536,-9.74524784088,0.51154500246
1560000085751761675,-0.00530362408608,0.00175487168599,-0.000598782130702,0.259541660547,-9.7254447937,0.491477489471
1560000085755678654,-0.00704895332456,9.54246752372e-06,-1.75042805495e-05,0.259871870279,-9.70580291748,0.451474368572
1560000085759594917,-0.00843737400017,0.00139796312722,-1.75042805495e-05,0.239998310804,-9.72558879852,0.471986621618
1560000085763510942,-0.00642098092188,0.00412817335978,-0.000645476698934,0.259856075048,-9.76521205902,0.511676907539
1560000085767426968,-0.00530362408608,0.00363285864324,-0.00176283356268,0.260191559792,-9.72576808929,0.451606303453
1560000085771343231,-0.00530362408608,0.0009027376465,-0.000910699492107,0.259221971035,-9.70547962189,0.49134555459
1560000085775259256,-0.00530362408608,9.54246752372e-06,-1.75042805495e-05,0.259856075048,-9.76521205902,0.511676907539
1560000085779175520,-0.00530362408608,0.00108553517839,-0.00109349703067,0.259541660547,-9.7254447937,0.491477489471
1560000085783091545,-0.00292819431483,0.00175487168599,-0.00176283356268,0.299592614174,-9.76524734497,0.51078748703
1560000085787008762,-6.76363852108e-05,0.000454225011028,-0.00176283356268,0.279079705477,-9.74510383606,0.531035900116
1560000085790924788,-6.76363852108e-05,0.00229447952707,-0.00350816268474,0.258252352476,-9.68519210815,0.531084835529
1560000085794842005,-6.76363852108e-05,0.00350020104088,-0.00198245439433,0.23901823163,-9.74490642548,0.551860928535
1560000085798758030,-0.00257753399581,9.54246752372e-06,-0.00176283356268,0.297983646393,-9.70503044128,0.550262868404
1560000085802675247,-0.00355829484761,-0.00348610028275,-1.75042805495e-05,0.316552132368,-9.70440196991,0.629560470581
1560000085806591272,-0.00158048817069,-0.00423754190982,-1.75042805495e-05,0.257597208023,-9.70467185974,0.591023564339
1560000085810507536,-6.76363852108e-05,9.54246752372e-06,-1.75042805495e-05,0.178768783808,-9.72472763062,0.572998762131
1560000085814424515,-6.76363852108e-05,9.54246752372e-06,-1.75042805495e-05,0.139682143927,-9.72501468658,0.534017086029
1560000085818341732,-6.76363852108e-05,9.54246752372e-06,-1.75042805495e-05,0.139351934195,-9.74465560913,0.574020206928
1560000085822258711,-6.76363852108e-05,9.54246752372e-06,-1.75042805495e-05,0.17909373343,-9.72488975525,0.55306327343
1560000085826174974,-6.76363852108e-05,-0.00241460844808,-0.000696325999926,0.198962002993,-9.72490692139,0.552618503571
1560000085830091000,-0.00173117664878,-0.00181757574654,-0.00176283356268,0.218835532665,-9.70512104034,0.532106220722
1560000085834007263,-0.00355829484761,-0.000832783715496,-1.75042805495e-05,0.198322609067,-9.68497753143,0.552354633808
1560000085837923288,-0.00355829484761,9.54246752372e-06,-1.75042805495e-05,0.198317363858,-9.70477962494,0.572422146797
1560000085841840506,-0.00355829484761,9.54246752372e-06,-1.75042805495e-05,0.238373577595,-9.7247800827,0.571664571762
1560000085845756531,-0.00355829484761,9.54246752372e-06,-1.75042805495e-05,0.277475982904,-9.66508388519,0.550443768501
1560000085849673748,-0.00220613393351,-0.00134261846207,-0.00136966522846,0.297653436661,-9.7246723175,0.590265989304
1560000085853589773,-0.00240460252098,-0.00288947904063,-0.00350816268474,0.33642038703,-9.70442008972,0.629115760326
1560000085857506990,-0.00513555726075,-0.000158524359736,-0.0019309003768,0.396019935608,-9.72427558899,0.647849082947
1560000085861422062,-0.00530362408608,9.54246752372e-06,-1.75042805495e-05,0.415882945061,-9.74409675598,0.667471885681
1560000085865339279,-0.00530362408608,0.00355602986977,-7.3333118288e-05,0.434461921453,-9.70386219025,0.70663446188
1560000085869255304,-0.00530362408608,0.00524553004652,-0.00176283356268,0.435117095709,-9.68438243866,0.64669573307
1560000085873171568,-0.00704895332456,0.00405942436129,-1.75042805495e-05,0.355958461761,-9.72407913208,0.668674111366
1560000085877087593,-0.00704895332456,0.00825511355566,-0.00128175858284,0.335770487785,-9.70409679413,0.668986916542
1560000085881004810,-0.00530362408608,0.00947217491438,-0.00125816212627,0.295714259148,-9.68409633636,0.669744491577
1560000085884920835,-0.00530362408608,0.006990859285,-1.75042805495e-05,0.354988843203,-9.70379066467,0.708413362503
1560000085888838053,-0.00530362408608,0.00771986646546,-1.75042805495e-05,0.394562959671,-9.70374488831,0.717491745949
1560000085892754078,-0.00530362408608,0.0121636774104,-1.75042805495e-05,0.354176491499,-9.70338630676,0.758252382278
1560000085896672249,-0.00530362408608,0.0141359202946,-1.75042805495e-05,0.274692893028,-9.74292182922,0.800166368484
1560000085900589466,-0.00549814080479,0.0174628347158,-1.75042805495e-05,0.293271899223,-9.70268630981,0.839329004288
1560000085904505730,-0.00822845899468,0.0162833284163,-0.00119700998018,0.192950427532,-9.72191619873,0.921426892281
1560000085908422709,-0.00837469220204,0.0135525858779,-1.75042805495e-05,0.170818001032,-9.68116188049,1.02128577232
1560000085912337780,-0.00704895332456,0.0108238367866,-1.75042805495e-05,0.119852803648,-9.66066741943,1.08207249641
1560000085916253805,-0.00704895332456,0.0074512064336,-1.75042805495e-05,-0.0490380004048,-9.70012283325,1.12598788738
1560000085920171261,-0.00867725103976,0.00361723254854,-1.75042805495e-05,-0.148059666157,-9.71999931335,1.12834346294
1560000085924087048,-0.00879428256303,-0.000857471857322,-1.75042805495e-05,0.0100793819875,-9.69993400574,1.15455698967
1560000085928004503,-0.00879428256303,-0.00544145475589,-1.75042805495e-05,0.0897149369121,-9.70008468628,1.14281022549
1560000085931920528,-0.00770232963034,-0.0109010097267,-1.75042805495e-05,0.0499836429954,-9.68024730682,1.12363219261
1560000085935837746,-0.00671697655296,-0.0101304563282,-0.000349481060449,0.0701768696308,-9.68042564392,1.10325181484
1560000085939753771,-0.00530362408608,-0.00871710386127,-0.00176283356268,0.0900398865342,-9.70024681091,1.12287461758
1560000085943671942,-0.00586130546572,-0.00927478524091,-0.000575185674138,0.149644702673,-9.70030021667,1.12154042721
1560000085947587967,-0.00704895332456,-0.0120049328975,-0.00176283356268,0.170802250504,-9.74057102203,1.0814883709
1560000085951504230,-0.00879428256303,-0.0139530915767,-0.00176283356268,0.170807510614,-9.72076797485,1.0614207983
1560000085955421209,-0.00881572109745,-0.0139316530423,-0.00176283356268,0.171446889639,-9.76069641113,1.06168460846
1560000085959338427,-0.0095327099396,-0.0132146642001,-0.00176283356268,0.211188688874,-9.74092960358,1.04072773457
1560000085963254690,-0.00879428256303,-0.0176899717007,-1.75042805495e-05,0.311494380236,-9.7811088562,1.01883220673
1560000085967171669,-0.00756259823604,-0.0191890802234,-1.75042805495e-05,0.391297638416,-9.76153755188,0.977050185204
1560000085971087933,-0.00657768234792,-0.0165012081004,-0.00223410450788,0.372718662024,-9.80177307129,0.9378875494
1560000085975004911,-0.00530362408608,-0.012497072104,-0.00496418215742,0.33169811964,-9.74168300629,0.958316922188
1560000085978921175,-0.00530362408608,-0.0146487631434,-0.00281249079321,0.332017809153,-9.76164722443,0.958448886871
1560000085982837200,-0.00530362408608,-0.0156984198838,-8.23368170116e-05,0.332012534142,-9.78145027161,0.978516340256
1560000085986754417,-0.00530362408608,-0.013032546329,-1.75042805495e-05,0.412146031857,-9.74223804474,0.896731138229
1560000085990672350,-0.00339728696759,-0.0120467544582,-1.75042805495e-05,0.450582802296,-9.7416267395,0.975584030151
1560000085994588614,-0.000667312243286,-0.0104624330997,-0.0011631576846,0.432003766298,-9.78186225891,0.936421513557
1560000085998505592,-0.00219847037724,-0.0100769283316,-0.00176283356268,0.411815792322,-9.76187896729,0.936734318733
1560000086002422810,-0.00355829484761,-0.00597496502436,-0.000391764109927,0.390977978706,-9.74157333374,0.97691822052
1560000086006339788,-0.00294710586421,-0.00522644538432,-1.75042805495e-05,0.39162260294,-9.76169967651,0.957114577293
1560000086010257006,-0.00181296560913,-0.00522644538432,-1.75042805495e-05,0.410851478577,-9.72178936005,0.956405997276
1560000086014173031,-0.00097695620469,-0.00180909713637,-1.75042805495e-05,0.430064588785,-9.74128627777,1.01590001583
1560000086018090248,-6.76363852108e-05,0.00357614251808,-1.75042805495e-05,0.369809895754,-9.74090957642,1.05710530281
1560000086022007227,-6.76363852108e-05,0.00524553004652,-1.75042805495e-05,0.328789323568,-9.68081951141,1.0775346756
1560000086025923491,-6.76363852108e-05,0.00319964309841,-1.75042805495e-05,0.369490206242,-9.72094535828,1.05697345734
1560000086029840469,-0.0013534932081,0.00175487168599,-1.75042805495e-05,0.329428732395,-9.72074890137,1.07779848576
1560000086033756733,-0.00408390442333,0.00280609080237,-1.75042805495e-05,0.328469663858,-9.6608543396,1.07740271091
1560000086037672758,-0.00379407380918,0.00524553004652,-1.75042805495e-05,0.28839763999,-9.7002620697,1.13836288452
1560000086041589975,-0.00280844523217,0.00449568053111,-1.75042805495e-05,0.268529355526,-9.70024490356,1.13880765438
1560000086045506001,-0.00181296560913,0.00523489138478,0.00171718625138,0.288402915001,-9.6804599762,1.11829531193
1560000086049422264,-0.00355829484761,0.006990859285,0.00270153287692,0.288083195686,-9.66049480438,1.11816346645
1560000086053338289,-0.00377157771644,0.00524553004652,0.00172782491427,0.248986065388,-9.70038890839,1.11931681633
1560000086057254553,-0.00530362408608,0.00644364732982,0.00052970766094,0.228792846203,-9.70020866394,1.13969707489
1560000086061171532,-0.00530362408608,0.0109192215652,-1.75042805495e-05,0.269498974085,-9.72053337097,1.09906828403
1560000086065088749,-0.00530362408608,0.0122268470004,-1.75042805495e-05,0.28839763999,-9.7002620697,1.13836288452
1560000086069004774,-0.00355829484761,0.0139721762389,-1.75042805495e-05,0.248661100864,-9.70022678375,1.13925242424
1560000086072921038,-0.00355829484761,0.0139721762389,-1.75042805495e-05,0.209888890386,-9.74028301239,1.120470047
1560000086076837063,-0.00619050217684,0.0130852981481,-1.75042805495e-05,0.169518202543,-9.68051528931,1.10102820396
1560000086080754280,-0.00704895332456,0.0104815177619,-1.75042805495e-05,0.189706191421,-9.70049667358,1.10071539879
1560000086084670305,-0.00704895332456,0.011592816258,-1.75042805495e-05,0.229762405157,-9.72049713135,1.09995782375
1560000086088587761,-0.00669736077693,0.0122268470004,-1.75042805495e-05,0.309565722942,-9.7009267807,1.05817568302
1560000086092503548,-0.00530362408608,0.0122268470004,-1.75042805495e-05,0.250925242901,-9.74096488953,1.03983819485
1560000086096421003,-0.00530362408608,0.0139721762389,-1.75042805495e-05,0.210863739252,-9.74076747894,1.06066322327
1560000086100337029,-0.00530362408608,0.0139721762389,-1.75042805495e-05,0.170812770724,-9.70096492767,1.04135334492
1560000086104253292,-0.00530362408608,0.0155727673625,-1.75042805495e-05,0.21054930985,-9.70100021362,1.0404638052
1560000086108169079,-0.00530362408608,0.0174628347158,-1.75042805495e-05,0.232351481915,-9.76139545441,0.980608105659
1560000086112085342,-0.00530362408608,0.0164382033461,-1.75042805495e-05,0.231387168169,-9.72130584717,1.00027990341
1560000086116002560,-0.00530362408608,0.0159818480974,-0.00176283356268,0.251889556646,-9.78105545044,1.0201665163
1560000086119918585,-0.00530362408608,0.0174628347158,-0.00176283356268,0.271763116121,-9.76127052307,0.99965429306
1560000086123835802,-0.00481440692957,0.0174628347158,-1.75042805495e-05,0.292600959539,-9.78157615662,0.959470272064
1560000086127752066,-0.00355829484761,0.0174628347158,-1.75042805495e-05,0.272722154856,-9.82116508484,1.0000500679
1560000086131667852,-0.00427118243044,0.0174628347158,-1.75042805495e-05,0.271757811308,-9.78107357025,1.01972174644
1560000086135585308,-0.00360549294242,0.0174628347158,-1.75042805495e-05,0.272088050842,-9.76143169403,0.979718565941
1560000086139501333,-0.00181296560913,0.0174628347158,-1.75042805495e-05,0.272732675076,-9.78155899048,0.959914922714
1560000086143418550,-6.76363852108e-05,0.0172850286516,-1.75042805495e-05,0.291316926479,-9.72152042389,0.979009985924
1560000086147335529,-6.76363852108e-05,0.0145545068881,-1.75042805495e-05,0.251255452633,-9.72132396698,0.999835133553
1560000086151252747,-6.76363852108e-05,0.016120631166,-1.75042805495e-05,0.191005989909,-9.70114326477,1.02097296715
1560000086155168772,0.00132008559835,0.0174628347158,-1.75042805495e-05,0.191016495228,-9.66153717041,0.98083794117
1560000086159085035,-6.76363852108e-05,0.0168353603232,-1.75042805495e-05,0.151583880186,-9.74087619781,1.04206192493
1560000086163002014,-6.76363852108e-05,0.015717504546,-1.75042805495e-05,0.190670520067,-9.74058818817,1.08104360104
1560000086166918278,-6.76363852108e-05,0.015717504546,-1.75042805495e-05,0.22976770997,-9.70069408417,1.07989025116
1560000086170835257,-6.76363852108e-05,0.0138802727076,-1.75042805495e-05,0.250275343657,-9.74064159393,1.07970941067
1560000086174751520,-6.76363852108e-05,0.0111501258889,-1.75042805495e-05,0.248666346073,-9.68042469025,1.11918485165
1560000086178667545,-6.76363852108e-05,0.0104815177619,-1.75042805495e-05,0.208455532789,-9.63063812256,1.09980893135
1560000086182583809,-6.76363852108e-05,0.0104815177619,-1.75042805495e-05,0.148206084967,-9.6104593277,1.12094676495
1560000086186500788,-0.00181296560913,0.0127677447448,-1.75042805495e-05,0.148206084967,-9.6104593277,1.12094676495
1560000086190417051,-0.00181296560913,0.0139721762389,-1.75042805495e-05,0.147398978472,-9.59025192261,1.15071833134
1560000086194333076,-0.000832204068524,0.0132076085492,-1.75042805495e-05,0.167581677437,-9.63003730774,1.17047297955
1560000086198250294,-0.00356328038541,0.0122268470004,-1.75042805495e-05,0.227831125259,-9.65021705627,1.14933514595
1560000086202166319,-0.00530362408608,0.0122268470004,-0.00100704496403,0.208762094378,-9.70011138916,1.1501096487
1560000086206082582,-0.00530362408608,0.0122268470004,-0.00199172075045,0.248493373394,-9.71994972229,1.16928768158
1560000086209998608,-0.00651702926945,0.0122268470004,-0.00229475758231,0.229117810726,-9.70037078857,1.11976146698
1560000086213914871,-0.00969961305267,0.0104815177619,-1.75042805495e-05,0.228798091412,-9.68040657043,1.11962962151
1560000086217831850,-0.01228494104,0.0104815177619,-1.75042805495e-05,0.209894150496,-9.72047996521,1.10040259361
1560000086221748114,-0.01228494104,0.0122268470004,-1.75042805495e-05,0.209899410605,-9.70067691803,1.08033502102
1560000086225664139,-0.0139473176052,0.0122268470004,-1.75042805495e-05,0.249486625195,-9.65112400055,1.03924453259
1560000086229581356,-0.0140302702785,0.0122268470004,-0.00176283356268,0.230428099632,-9.6614112854,0.999884128571
1560000086233497381,-0.0140302702785,0.0122268470004,-1.75042805495e-05,0.251271218061,-9.66191387177,0.939632534981
1560000086237413645,-0.0140302702785,0.011100586888,-1.75042805495e-05,0.193270117044,-9.74188041687,0.921558856964
1560000086241329670,-0.0157755985856,0.00837076332159,-1.75042805495e-05,0.15515306592,-9.76245594025,0.842837929726
1560000086245245934,-0.014425265889,0.006990859285,-1.75042805495e-05,0.196828782558,-9.80306720734,0.762469887733
1560000086249162912,-0.0116945236289,0.00758127669607,-1.75042805495e-05,0.256433606148,-9.8031206131,0.761135697365
1560000086253079176,-0.00896494366233,0.00716152038429,-1.75042805495e-05,0.257565647364,-9.82349014282,0.711428642273
1560000086256995201,-0.00704895332456,0.006990859285,-1.75042805495e-05,0.258226066828,-9.78420734406,0.631422400475
1560000086260911226,-0.00704895332456,0.006990859285,-1.75042805495e-05,0.259190410376,-9.82429790497,0.611750662327
1560000086264827490,-0.00704895332456,0.00595243985362,-1.75042805495e-05,0.259190410376,-9.82429790497,0.611750662327
1560000086268743515,-0.00530362408608,0.0055231204964,-1.75042805495e-05,0.261119097471,-9.90448093414,0.572407126427
1560000086272659779,-0.00404124321354,0.00825324015754,-1.75042805495e-05,0.201839238405,-9.90458965302,0.553805828094
1560000086276575565,-0.00131128565281,0.00997983780143,-1.75042805495e-05,0.201839238405,-9.90458965302,0.553805828094
1560000086280491829,-6.76363852108e-05,0.00725025720602,-1.75042805495e-05,0.202494397759,-9.88510894775,0.493867069483
1560000086284407854,0.00240320983426,0.00524553004652,-1.75042805495e-05,0.300210982561,-9.88438987732,0.591321349144
1560000086288324118,0.00513344137135,0.00524553004652,-1.75042805495e-05,0.398284047842,-9.76501274109,0.548434972763
1560000086292240143,0.00786294465191,0.00524553004652,-1.75042805495e-05,0.337709665298,-9.74467277527,0.589508414268
1560000086296156406,0.00865900982171,0.00505673838949,-1.75042805495e-05,0.198291063309,-9.80379486084,0.672759771347
1560000086300072432,0.00865900982171,0.00350020104088,-1.75042805495e-05,0.157270506024,-9.74370384216,0.693189024925
1560000086303987503,0.00865900982171,0.00308822496807,0.000394471754474,0.127295091748,-9.783203125,0.743958950043
1560000086307904720,0.00865900982171,0.00035734537287,0.00172782491427,0.155802965164,-9.76277923584,0.802966713905
1560000086311821938,0.00865900982171,9.54246752372e-06,-1.75042805495e-05,0.153863787651,-9.72220420837,0.882445216179
1560000086315737963,0.00865900982171,0.00163202230006,-1.75042805495e-05,0.17211779952,-9.68180847168,0.941543459892
1560000086319653988,0.00865900982171,0.00175487168599,-1.75042805495e-05,0.210559800267,-9.66139411926,1.00032889843
1560000086323570251,0.00865900982171,0.00165383801221,-1.75042805495e-05,0.249166935682,-9.63115882874,1.03911268711
1560000086327487469,0.00865900982171,9.54246752372e-06,-1.75042805495e-05,0.288408130407,-9.66065597534,1.09822785854
1560000086331403494,0.00691368058324,0.000335202006831,0.00172782491427,0.188587263227,-9.63062000275,1.100253582
1560000086335318565,0.00560406089753,0.00175487168599,0.000418205261313,0.127698436379,-9.57051181793,1.12112772465
1560000086339233875,0.0028744809991,0.0029516598971,-0.000566045401464,0.11808399111,-9.590467453,1.12148201466
1560000086343150854,0.000144256302455,0.000221435150994,-0.00176283356268,0.146927326918,-9.53060054779,1.12041914463
1560000086347067118,-0.000840679804673,9.54246752372e-06,-0.00176283356268,0.245948970318,-9.51072502136,1.11806344986
1560000086350983143,-0.00181296560913,9.54246752372e-06,-0.00525349192321,0.286005228758,-9.53072452545,1.11730587482
1560000086354900360,-0.00281079548816,9.54246752372e-06,-0.00525349192321,0.287619441748,-9.57113838196,1.05776298046
1560000086358816385,-0.00554067903755,9.54246752372e-06,-0.00152577860529,0.128353595734,-9.55103206635,1.06118893623
1560000086362732649,-0.00704895332456,-0.00121233786537,-1.75042805495e-05,0.129952043295,-9.65085506439,1.06184852123
1560000086366649628,-0.00751047310127,-0.0039426357513,-0.00176283356268,0.129967823625,-9.59144592285,1.00164604187
1560000086370565891,-0.0116870456677,-0.00522644538432,-0.00176283356268,0.189892321825,-9.61146450043,1.00044381618
1560000086374481916,-0.0140302702785,-0.00522644538432,-1.75042805495e-05,0.212179288268,-9.68200492859,0.920718312263
1560000086378399134,-0.015701630094,-0.00355508445397,-1.75042805495e-05,0.213468596339,-9.72225761414,0.88111102581
1560000086382315159,-0.0157755985856,-0.00264601060785,-1.75042805495e-05,0.195864453912,-9.76297664642,0.782141685486
1560000086386230469,-0.0157755985856,-0.00552489472557,-1.75042805495e-05,0.216230675578,-9.72363185883,0.711658477783
1560000086390147448,-0.0146410847699,-0.0109861327034,-0.00115201873001,0.255972474813,-9.70386314392,0.69070148468
1560000086394062519,-0.0140302702785,-0.0139530915767,-0.00176283356268,0.275353312492,-9.70363903046,0.720160126686
1560000086397978783,-0.0140302702785,-0.0125952807405,-0.00176283356268,0.19701756537,-9.70413303375,0.652164578438
1560000086401894808,-0.01228494104,-0.0128049932445,-1.75042805495e-05,0.139362454414,-9.70504951477,0.53388518095
1560000086405811071,-0.01228494104,-0.0155347221646,-1.75042805495e-05,0.140955641866,-9.82467651367,0.554612278938
1560000086409728050,-0.0114632089899,-0.0190872141537,-1.75042805495e-05,0.179722592235,-9.80442428589,0.593462109566
1560000086413644314,-0.0105396118015,-0.0226797368377,-1.75042805495e-05,0.161793515086,-9.84498310089,0.514428317547
1560000086417560339,-0.009493644349,-0.0216337699434,-1.75042805495e-05,0.162118464708,-9.84514427185,0.494492709637
1560000086421475649,-0.00676446263255,-0.0209344085306,-0.000301994979674,0.143219769001,-9.86541461945,0.455198198557
1560000086425393581,-0.00403323606371,-0.0222047958751,-0.00176283356268,0.202174693346,-9.86514472961,0.493735164404
1560000086429310799,-0.00355829484761,-0.0261703971773,-1.75042805495e-05,0.262429386377,-9.86552143097,0.452529788017
1560000086438732624,-0.00355829484761,-0.0261703971773,-1.75042805495e-05,0.24321103096,-9.86582660675,0.413103342056
1560000086442649841,-0.00181296560913,-0.0244250670075,-1.75042805495e-05,0.13201212883,-9.76574230194,0.434825360775
1560000086446568012,-9.42217668429e-05,-0.0244250670075,-0.00173624818016,0.0836202278733,-9.84555721283,0.436464905739
1560000086450487614,-6.76363852108e-05,-0.0280883477541,-0.00176283356268,0.130397900939,-9.72532939911,0.494368284941
1560000086454406738,-6.76363852108e-05,-0.0316050301148,-1.75042805495e-05,0.280049324036,-9.76539134979,0.491296589375
1560000086458324909,0.00111574450229,-0.0331517122686,-1.75042805495e-05,0.339004218578,-9.76512145996,0.529833555222
1560000086462244034,0.00342302210629,-0.0331517122686,-1.75042805495e-05,0.239641845226,-9.84424495697,0.612327337265
1560000086466160297,0.00342302210629,-0.0345582431789,-1.75042805495e-05,0.0387107804418,-9.74392032623,0.655986309052
1560000086470079660,0.00516835134476,-0.0355439195049,-1.75042805495e-05,-0.0808185338974,-9.72384929657,0.658522844315
1560000086473998785,0.00516835134476,-0.0366423688829,-0.00164922458114,0.0569648146629,-9.70352458954,0.715084433556
1560000086477918863,0.00516835134476,-0.0410056930277,-0.00176283356268,0.215103834867,-9.6834602356,0.741298079491
1560000086481838226,0.00680074698628,-0.0418783575296,-1.75042805495e-05,0.334292441607,-9.76277828217,0.81889975071
1560000086485756397,0.00516835134476,-0.042975833892,-1.75042805495e-05,0.311840385199,-9.70205783844,0.91862654686
1560000086489674568,0.00483170858282,-0.0460423000271,-0.00035414705091,0.173396587372,-9.76166629791,0.942071080208
1560000086493591785,0.00342302210629,-0.0501803015991,-0.000442205709373,0.032570913434,-9.6121301651,0.90432369709
1560000086497509956,0.00516835134476,-0.0517904333591,-1.75042805495e-05,-0.0690188035369,-9.51189517975,0.945758938789
1560000086501429081,0.00362331407993,-0.0506050027907,-1.75042805495e-05,0.0693829059601,-9.61071109772,1.08285450935
1560000086505349636,-6.76363852108e-05,-0.0531366292245,-1.75042805495e-05,0.186674371362,-9.49102973938,1.07939457893
1560000086509268761,-0.00183953834311,-0.0558675641572,-0.00176283356268,0.25046145916,-9.6516084671,0.979437708855
1560000086513186932,-0.00355829484761,-0.0585973941502,-0.00176283356268,0.247888177633,-9.5513010025,1.03858494759
1560000086517105341,-0.00181296560913,-0.062822304666,-0.00151252788106,0.148866504431,-9.57117652893,1.04094052315
1560000086521023512,-0.00304790429958,-0.0640572479693,-1.75042805495e-05,0.0898958072066,-9.63085460663,1.06260609627
1560000086524941683,-0.00625205742691,-0.0663129687309,-1.75042805495e-05,0.0713273435831,-9.631483078,0.983308434486
1560000086528861761,-0.0102545924426,-0.0648526596306,-0.0014778141966,0.122772090137,-9.68192481995,0.922719717026
1560000086532781124,-0.01228494104,-0.0670133921843,-0.00176283356268,0.171798110008,-9.66184329987,0.941411495209
1560000086536699295,-0.0106002367185,-0.0714277038832,-0.00176283356268,0.17211779952,-9.68180847168,0.941543459892
1560000086540617466,-0.0105396118015,-0.0742185138028,-1.75042805495e-05,0.252885460854,-9.70232772827,0.880089640617
1560000086544536829,-0.0105396118015,-0.0750396102667,-0.000182089168794,0.275673031807,-9.72360420227,0.72029209137
1560000086548455954,-0.0116888820235,-0.0738903406579,-0.00291210370806,0.196687355638,-9.72377490997,0.692167639732
1560000086552372217,-0.0144179176678,-0.071161306263,-0.00137518595676,0.128432422876,-9.78376865387,0.674184441566
1560000086556290627,-0.0171482110285,-0.0684310143673,-1.75042805495e-05,0.0976867079735,-9.66443824768,0.614253163338
1560000086560210705,-0.0169074307883,-0.0669264660433,-1.75042805495e-05,0.159545153379,-9.74483585358,0.553639888763
1560000086564128876,-0.0141780805534,-0.0680582970381,-0.00161502320514,0.279734879732,-9.72562503815,0.471097141504
1560000086568047047,-0.01228494104,-0.0732231940064,-0.00434528330845,0.321714520454,-9.84560966492,0.451063632965
1560000086571965218,-0.01228494104,-0.0767849460244,-0.00350816268474,0.203149527311,-9.86562919617,0.433928400278
1560000086575882673,-0.01228494104,-0.0757245897381,-0.00350816268474,0.104772530496,-9.90563201904,0.416480332613
1560000086579801798,-0.0102391741893,-0.0750396102667,-0.00350816268474,0.123037047684,-9.82562828064,0.435443490744
1560000086583721876,-0.00879428256303,-0.0750396102667,-0.00350816268474,0.203175827861,-9.76661300659,0.333590805531
1560000086587640047,-0.00530362408608,-0.0773106712353,-0.00176283356268,0.262770116329,-9.80627250671,0.372391611338
1560000086591560364,-0.00379180221628,-0.0800420953947,-0.00025101165506,0.242901831865,-9.8062543869,0.372836351395
1560000086595479727,-0.00355829484761,-0.0812687572575,-0.000769678389129,0.20282459259,-9.86546802521,0.453863978386
1560000086599397898,-0.0018219343357,-0.076802883468,-0.00349919395877,0.202179953456,-9.84534168243,0.473667651415
1560000086603315115,-6.76363852108e-05,-0.0750396102667,-0.00253301719911,0.281338602304,-9.80564403534,0.451689243317
1560000086607233286,-6.76363852108e-05,-0.0769997069929,-1.75042805495e-05,0.319785833359,-9.76542663574,0.490407109261
1560000086611151695,-6.76363852108e-05,-0.0785302743316,-1.75042805495e-05,0.218489542603,-9.78417205811,0.632311880589
1560000086615068913,-6.76363852108e-05,-0.0785302743316,-0.000455498579507,0.118168078363,-9.80340099335,0.714409828186
1560000086618988037,0.00277923696211,-0.0785302743316,-0.00176283356268,0.0970315486193,-9.68391895294,0.674191892147
1560000086622908115,0.00516835134476,-0.0809394054061,-0.00242663663998,0.296998292208,-9.74415111542,0.650204658508
1560000086626826525,0.00351984641429,-0.0820209309459,-0.00515666761521,0.512158334255,-9.66343784332,0.774366259575
1560000086630745649,0.00167769286782,-0.0811322403994,-0.00525349192321,0.431055217981,-9.68236255646,0.895890712738
1560000086634662867,0.00167769286782,-0.0766573840292,-0.00176283356268,0.192966192961,-9.66250705719,0.861224412918
1560000086638580084,0.00167769286782,-0.0750396102667,-0.00176283356268,0.124242253602,-9.65294742584,0.802908301353
1560000086642500162,0.00342302210629,-0.0788820636309,-0.00176283356268,0.154199242592,-9.68276023865,0.8223747015
1560000086646418571,0.00342302210629,-0.0816123468718,-0.00176283356268,0.332369059324,-9.66279315948,0.838175654411
1560000086650335789,0.00284766951771,-0.0814455786643,-1.75042805495e-05,0.389693945646,-9.68151855469,0.996458172798
1560000086654253960,0.000117725816886,-0.0802756026387,-1.75042805495e-05,0.30957621336,-9.66132068634,1.01804077625
1560000086658173084,-6.76363852108e-05,-0.0777301040583,-0.00176283356268,0.191016495228,-9.66153717041,0.98083794117
1560000086662091255,-0.000107166635916,-0.0767849460244,-0.00172330331066,0.19216170907,-9.63239765167,0.880962133408
1560000086666009426,-0.00283716662617,-0.0757607411817,-1.75042805495e-05,0.369026452303,-9.63158893585,0.996573090553
1560000086669927835,-0.00530362408608,-0.0745124747127,0.00024606363051,0.428775310516,-9.70103359222,1.05550730228
1560000086673847198,-0.00530362408608,-0.0703000597511,0.000478930377836,0.327680945396,-9.57133674622,1.03693795204
1560000086677765369,-0.00530362408608,-0.0680582970381,-1.75042805495e-05,0.251111358404,-9.6519317627,0.939566612244
1560000086681683540,-0.00677631302981,-0.069530985196,-1.75042805495e-05,0.289563894272,-9.59191131592,0.958216905594
1560000086685601711,-0.00950627166862,-0.0680582970381,-1.75042805495e-05,0.448329180479,-9.66128349304,1.03486311436
1560000086689520121,-0.0122362802041,-0.0680582970381,-1.75042805495e-05,0.488230794668,-9.65149879456,1.0139721632
1560000086693438292,-0.013221054463,-0.0689944099616,-1.75042805495e-05,0.311706781387,-9.59306049347,0.818223118782
1560000086697356462,-0.0140302702785,-0.0717246818018,-1.75042805495e-05,0.194585680962,-9.68311882019,0.781613945961
1560000086701273680,-0.0140302702785,-0.0732942819595,-1.75042805495e-05,0.174057006836,-9.72238445282,0.862064957619
1560000086705191851,-0.0126836978375,-0.0711501970676,-1.75042805495e-05,0.454141438007,-9.80281352997,0.816495060921
1560000086709110022,-0.0154137058468,-0.0684201897769,0.00136593199138,0.703144729137,-9.80335903168,0.771064639091
1560000086713028431,-0.0175209287554,-0.0663129687309,0.000605257942761,0.643225550652,-9.76353740692,0.752199411392
1560000086716946602,-0.0175209287554,-0.0663129687309,0.000120354531831,0.316531091928,-9.78361415863,0.709830582142
1560000086720863819,-0.0166746677743,-0.0637213767332,-1.75042805495e-05,0.138052135706,-9.74400901794,0.653762578964
1560000086724783897,-0.0139432365687,-0.062822304666,0.00181485862982,0.177474245429,-9.70427799225,0.632673680782
1560000086728702068,-0.0112132184874,-0.0617505849728,0.00347315426916,0.376471370459,-9.74422264099,0.648425757885
1560000086732619286,-0.01228494104,-0.0593316480517,0.00285295389463,0.496011227369,-9.72468852997,0.605754137039
1560000086736538649,-0.01228494104,-0.0593316480517,-1.75042805495e-05,0.318826794624,-9.70553302765,0.490011334419
1560000086740454912,-0.0128184253,-0.0587981640763,-1.75042805495e-05,0.121747784317,-9.78537654877,0.475050806999
1560000086744373083,-0.0125121596033,-0.0560682098795,-1.75042805495e-05,0.0611733794212,-9.7650346756,0.516124308109
1560000086748293161,-0.00978093217248,-0.0533369839061,0.000969145304225,0.16210795939,-9.88475036621,0.534627795219
1560000086752211332,-0.00705111274667,-0.0523503348231,-1.75042805495e-05,0.301531791687,-9.80582237244,0.431308925152
1560000086756129742,-0.00530362408608,-0.0540956631303,-0.00100029045199,0.421061098576,-9.82589435577,0.428772419691
1560000086760047913,-0.00378009552692,-0.053652061535,-1.75042805495e-05,0.362425893545,-9.84612941742,0.390367388725
1560000086763966084,-0.00530362408608,-0.0481910525215,-1.75042805495e-05,0.202515408397,-9.80589580536,0.413597017527
1560000086767885208,-0.00355829484761,-0.0449220904282,-1.75042805495e-05,0.164057657123,-9.88572025299,0.415014207363
1560000086771803379,-0.00355829484761,-0.0407608091182,-0.00144894343949,0.143880188465,-9.826130867,0.375191986561
1560000086775722027,-0.00114201740822,-0.0401330292225,-0.00176283356268,0.18362724781,-9.78656101227,0.334167480469
1560000086779640198,0.00158800145723,-0.0401330292225,-0.00176283356268,0.263739705086,-9.82656097412,0.332652360201
1560000086783559322,0.00431836476469,-0.0401330292225,-0.000867490881885,0.281993716955,-9.78616428375,0.39175054431
1560000086787477493,0.00691368058324,-0.0398626269183,-0.000152705363869,0.380994349718,-9.84550189972,0.469664990902
1560000086791396618,0.00579364057755,-0.0355223294749,-0.00176283356268,0.500209271908,-9.82580471039,0.446929067373
1560000086795315027,0.00516835134476,-0.031046618814,-1.75042805495e-05,0.402151942253,-9.88577079773,0.429612934589
1560000086799234152,0.00651357083026,-0.028315835024,-1.75042805495e-05,0.320750147104,-9.80551815033,0.470735371113
1560000086803153276,0.0109892167641,-0.0314063802361,-1.75042805495e-05,0.218803972006,-9.82393932343,0.652511358261
1560000086807071447,0.0121496682987,-0.0329759830474,-1.75042805495e-05,0.273089170456,-9.66290187836,0.81957423687
1560000086810990810,0.0121496682987,-0.0305967685307,-1.75042805495e-05,0.4318754673,-9.65306186676,0.815950393677
1560000086814908981,0.0121496682987,-0.0261215512326,-0.00176283356268,0.450459748507,-9.5930223465,0.835045456886
1560000086818827152,0.0111160574583,-0.0233914556156,-0.00176283356268,0.370480805635,-9.66202068329,0.936964154243
1560000086822745323,0.0104043390602,-0.0226797368377,-0.00176283356268,0.290017127991,-9.7208738327,1.05875241756
1560000086826663494,0.0116616803176,-0.0226797368377,-0.00176283356268,0.328000634909,-9.59130096436,1.03706991673
1560000086830583096,0.0116518092745,-0.0244250670075,-1.75042805495e-05,0.488236099482,-9.63169574738,0.993904590607
1560000086834501266,0.00892187315939,-0.0244250670075,-1.75042805495e-05,0.556171357632,-9.55173778534,1.0117559433
1560000086838419437,0.00619149844276,-0.0219575550826,-1.75042805495e-05,0.535322964191,-9.57103729248,1.09207499027
1560000086842337608,4.94509649953e-05,-0.0192281093192,-1.75042805495e-05,0.506170451641,-9.57133388519,1.05287086964
1560000086846255779,-0.00101324440717,-0.015552533994,0.000928103725642,0.506180942059,-9.53172779083,1.01273584366
1560000086850175142,-0.00181296560913,-0.013766916651,0.00328697933101,0.446251213551,-9.53151321411,1.03400564194
1560000086854093313,-0.00181296560913,-0.0122077623382,0.000557517590686,0.349307507277,-9.68115997314,1.03721880913
1560000086858012438,-0.00222355324608,-0.0126183499752,0.000393083346129,0.326716601849,-9.53124523163,1.05660963058
1560000086861931562,-0.00495422542134,-0.012557161003,0.000331894375451,0.289052814245,-9.68078327179,1.07842409611
1560000086865849972,-0.00768417743171,-0.0115725382311,-1.75042805495e-05,0.328005880117,-9.57149791718,1.01700234413
1560000086869768143,-0.012034137257,-0.0104624330997,0.00160242302594,0.41072845459,-9.57318496704,0.815867424011
1560000086873686314,-0.0131443183731,-0.0113218104328,0.00258720230468,0.272939831018,-9.61331367493,0.779373288155
1560000086877604485,-0.0158745823685,-0.0122077623382,0.00172782491427,0.130319043994,-9.49259185791,0.881372928619
1560000086881523609,-0.0175209287554,-0.0111240939668,0.000644156569938,0.134006008506,-9.6825799942,0.84275496006
1560000086885443211,-0.0157755985856,-0.0118835443356,-1.75042805495e-05,0.155187249184,-9.63373661041,0.71239900589
1560000086889361382,-0.0157755985856,-0.0104624330997,-1.75042805495e-05,0.220758929849,-9.80510616302,0.512830257416
1560000086893279552,-0.0175209287554,-0.00871710386127,-1.75042805495e-05,0.220758929849,-9.80510616302,0.512830257416
1560000086897197723,-0.0159882817539,-0.0102497500449,-1.75042805495e-05,0.259504824877,-9.86406707764,0.631950139999
1560000086901116848,-0.0140302702785,-0.0122077623382,-1.75042805495e-05,0.199926331639,-9.76499652863,0.532946705818
1560000086905035257,-0.0157755985856,-0.0121838357036,-1.75042805495e-05,0.204774290323,-9.86643791199,0.334250420332
1560000086908952475,-0.0147793591838,-0.00672462399454,-1.75042805495e-05,0.14469781518,-9.80673122406,0.305285453796
1560000086912870646,-0.0140302702785,-0.00301006898775,-1.75042805495e-05,0.0846003219485,-9.8262386322,0.356590598822
1560000086916788816,-0.012810466826,-0.00243006436996,-1.75042805495e-05,0.132326558232,-9.80551052094,0.455024778843
1560000086920707941,-0.0105396118015,-0.00568648537185,-1.75042805495e-05,0.200911700726,-9.72587585449,0.433004915714
1560000086924626112,-0.0105396118015,-0.00841652324922,-1.75042805495e-05,0.184906005859,-9.86642074585,0.334695160389
1560000086928545475,-0.00742532495283,-0.00940158266637,-1.75042805495e-05,0.163758978248,-9.78654289246,0.334612190723
1560000086932463646,-0.00530362408608,-0.0121316687965,-1.75042805495e-05,0.204758524895,-9.92584609985,0.394452989101
1560000086936381817,-0.00530362408608,-0.0112988887814,0.00081895138023,0.219165712595,-9.6854801178,0.492103099823
1560000086940299988,-0.00341042749578,-0.0122077623382,-1.75042805495e-05,0.280672907829,-9.86473178864,0.551762998104
1560000086944219351,-0.00181296560913,-0.0110744356172,-1.75042805495e-05,0.240333795547,-9.68614387512,0.411916017532
1560000086948137522,-0.00181296560913,-0.00871710386127,-1.75042805495e-05,0.199947357178,-9.68578529358,0.452676683664
1560000086952055693,-0.00181296560913,-0.0100741397472,-1.75042805495e-05,0.236609995365,-9.63477706909,0.59100651741
1560000086955973864,-0.00121612389603,-0.00931394557935,-1.75042805495e-05,0.373730301857,-9.66363716125,0.737608194351
1560000086959892035,-0.00164904527111,-0.0120438419988,-1.75042805495e-05,0.495361298323,-9.72436523438,0.645625352859
1560000086963811636,-0.000991477894672,-0.0147745788597,-1.75042805495e-05,0.417507708073,-9.74490451813,0.56779384613
1560000086967729807,-0.00181296560913,-0.0174437500536,-1.75042805495e-05,0.298271775246,-9.84381389618,0.670799911022
1560000086971647978,-0.00285860237764,-0.0153524765166,-1.75042805495e-05,0.215732723475,-9.76299476624,0.781696915627
1560000086975566149,-0.00530362408608,-0.0142375550804,-1.75042805495e-05,0.139325633645,-9.84367179871,0.674357771873
1560000086979484320,-0.00530362408608,-0.0169677210869,-1.75042805495e-05,0.15616209805,-9.63422107697,0.652592301369
1560000086983402491,-0.00704895332456,-0.0214431581244,-1.75042805495e-05,0.182259097695,-10.0433549881,0.674787521362
1560000086987321854,-0.00704895332456,-0.0226797368377,-1.75042805495e-05,0.227807968855,-9.12535381317,0.627513647079
1560000086991240025,-0.00778256999335,-0.0219461205604,-1.75042805495e-05,0.184240341187,-9.92550563812,0.434768915176
1560000086995156288,-0.00879428256303,-0.0192176486049,-1.75042805495e-05,0.0935727879405,-9.2464723587,0.451998054981
1560000086999075413,-0.00783724127329,-0.0155296674742,-1.75042805495e-05,-0.0968189537525,-9.84459018707,0.540145516396
1560000087002993584,-0.00704895332456,-0.0122077623382,-0.00370406392199,-0.29437482357,-9.35480213165,0.600945174694
1560000087006911755,-0.00822961248847,-0.0122077623382,-0.00643415108713,-0.274616509676,-9.6864900589,0.323801219463
1560000087010830164,-0.00879428256303,-0.0161187671151,-0.00874415040016,-0.060061648488,-9.43712711334,0.317260056734
1560000087014750242,-0.0102006483571,-0.0188501165982,-0.00874415040016,0.122680582106,-9.94428634644,0.57578420639
1560000087018668413,-0.0105396118015,-0.0161528581233,-0.00874415040016,0.0428772941232,-9.96385574341,0.617566227913
1560000087022586584,-0.0105396118015,-0.0123230547425,-0.00874415040016,-0.0769454389811,-9.82480430603,0.519633293152
1560000087026505947,-0.0105396118015,-0.011332605187,-0.00874415040016,-0.0775900781155,-9.80467700958,0.539436936378
1560000087030424118,-0.0123944292068,-0.0124267386135,-0.0105989678055,-0.142519757152,-9.66333675385,0.729235768318
1560000087034343481,-0.015125335863,-0.0156984198838,-0.0122348088771,-0.00507711805403,-9.70225906372,0.86593568325
1560000087038262606,-0.0175209287554,-0.0174437500536,-0.0139801381156,0.230661571026,-9.39415073395,0.719004809856
1560000087042181015,-0.0175209287554,-0.0174437500536,-0.0153001418349,0.468430906534,-9.3940410614,0.753539204597
1560000087046099186,-0.0180800059173,-0.0174437500536,-0.0139801381156,0.577003955841,-9.59184551239,0.991639494896
1560000087050018311,-0.0208108682988,-0.0158991390316,-0.0124355279177,0.346621692181,-9.3926410675,0.915692329407
1560000087053934574,-0.0245022457093,-0.0139530915767,-0.0104894796386,0.0970210433006,-9.7235250473,0.714326918125
1560000087057854652,-0.0245251750737,-0.0139760209166,-0.0122348088771,0.154380127788,-9.613530159,0.742170453072
1560000087061774015,-0.0272561759304,-0.0156984198838,-0.0112262082876,0.543229043484,-9.78292942047,0.814361929893
1560000087065692186,-0.0282404798681,-0.0174437500536,-0.0107370554526,0.762298941612,-9.6645488739,0.65916121006
1560000087069611311,-0.0297382324934,-0.0174437500536,-0.0110018345779,0.786056101322,-9.70611286163,0.459624409676
1560000087073529482,-0.0319559368261,-0.0164989995149,-0.00921652566951,0.648453593254,-9.65720748901,0.322858631611
1560000087077447653,-0.033228892833,-0.0124958813357,-0.0104894796386,0.588998138905,-9.70674228668,0.364393830299
1560000087081366062,-0.0342775851239,-0.00976579671176,-0.00804751401217,0.540957450867,-9.6877040863,0.245760202408
1560000087085284233,-0.0315476739665,-0.00535467151092,-0.00699882116169,0.444530129433,-9.72867584229,0.10869859159
1560000087089202404,-0.0297382324934,-0.00522644538432,-0.00699882116169,0.387818306684,-9.84889507294,0.0510175526142
1560000087093121767,-0.0297382324934,-0.00713272119226,-0.00683787459223,0.488758116961,-9.94880771637,0.0494534671307
1560000087097041130,-0.0285921755892,-0.00871710386127,-0.00639954943894,0.659257948399,-9.96956920624,-0.0339372456074
1560000087100960255,-0.0262475758791,-0.0104624330997,-0.00525349192321,0.700781702995,-9.97049331665,-0.14447247982
1560000087104878426,-0.0235059578707,-0.00909162482704,-0.00525349192321,0.532551288605,-9.9706659317,-0.180563390255
1560000087108797550,-0.020401021677,-0.00461587942173,-0.00525349192321,0.273294180632,-9.95014762878,-0.135042518377
1560000087112715721,-0.0176709557351,-0.00188581368056,-0.00525349192321,0.194492012262,-9.87118816376,-0.253404825926
1560000087116634130,-0.014940818962,-0.00173578679096,-0.00434294275382,0.272345632315,-9.85064697266,-0.175573319197
1560000087120553255,-0.0122103713183,-0.00355568564463,-0.00517892220155,0.372646063566,-9.91063022614,-0.17740124464
1560000087124471426,-0.00948051742723,-0.00522644538432,-0.0024490683811,0.391235530376,-9.83078861237,-0.17837369442
1560000087128389597,-0.00500465225553,-0.00492747351388,-0.00206180537329,0.352133125067,-9.89048671722,-0.157152861357
1560000087132308722,-0.000990705743939,-0.000913526869559,-0.00350816268474,0.231466472149,-9.86985015869,-0.0848417580128
1560000087136227131,-6.76363852108e-05,0.00227823808859,-0.00525349192321,0.171201273799,-9.9090795517,-0.00350132584572
1560000087140144348,0.00143992001804,0.00500775723045,-0.00525349192321,0.131464719772,-9.90904426575,-0.00261184573174
1560000087144064665,0.00242590476843,0.00524553004652,-0.00425637458536,0.189780235291,-9.86884498596,0.0356612801552
1560000087147982836,0.00515589447046,0.00177978543377,-0.00525349192321,0.326594024897,-9.82822990417,0.131962224841
1560000087151903152,0.00865900982171,9.54246752372e-06,-0.00525349192321,0.422675341368,-9.86631011963,0.369229495525
1560000087155822277,0.00670033327909,0.00218156628005,-0.00525349192321,0.3592184484,-9.68608856201,0.429183185101
1560000087159740448,0.00516835134476,0.00644374140634,-0.00645170328303,0.259397566319,-9.65605258942,0.431208968163
1560000087163657665,0.00516835134476,0.0109184726469,-0.00699882116169,0.316104114056,-9.55563735962,0.508957505226
1560000087167575836,0.00516835134476,0.0122268470004,-0.00699882116169,0.313504517078,-9.55434417725,0.668442249298
1560000087171494246,0.00342302210629,0.00982043551645,-0.00525349192321,0.257570922375,-9.80368614197,0.691361069679
1560000087175413370,0.00342302210629,0.00544351631336,-0.00525349192321,0.305661559105,-9.10481452942,0.705345153809
1560000087179331541,0.00253739722665,0.00438582580238,-0.00436786704357,0.682925343513,-9.90219593048,0.891782641411
1560000087183250666,-0.000192920179093,0.00736671066978,-0.00338287889817,0.793678820133,-9.31382846832,0.825415611267
1560000087187168837,-0.00292314682527,0.0133370282166,-0.00287301470476,0.69882363081,-9.55363941193,0.789351224899
1560000087191088438,-0.00739971313441,0.0174628347158,-0.00315740289828,0.373104095459,-9.57419967651,0.687175512314
1560000087195006609,-0.011464098439,0.0187977433662,-0.00309774141164,0.166730359197,-9.16417980194,0.758693099022
1560000087198924780,-0.0128592987849,0.0174628347158,-0.00408252042962,0.155792444944,-9.8023853302,0.843101739883
1560000087202843904,-0.0155900169457,0.015903086384,-0.00525349192321,0.329850941896,-9.35455322266,0.686613917351
1560000087206763268,-0.0183208169546,0.0131722884665,-0.00270827496574,0.687364697456,-9.70634555817,0.421976923943
1560000087210681438,-0.0210508000904,0.0105599435198,-1.75042805495e-05,0.902207612991,-9.5957660675,0.535972833633
1560000087214600563,-0.0217323032475,0.0149967885309,-1.75042805495e-05,0.706855356693,-9.9042339325,0.642142951488
1560000087218518734,-0.0212751145935,0.019735219608,-1.75042805495e-05,0.257128179073,-9.6351184845,0.55069065094
1560000087222434044,-0.0240031765224,0.0239450824829,-1.75042805495e-05,0.128524392843,-9.96699810028,0.237011030316
1560000087226353168,-0.0245022457093,0.0199805072694,-1.75042805495e-05,0.242181479931,-9.45929718018,0.0714938044548
1560000087230271578,-0.0259730463097,0.0130504352692,-1.75042805495e-05,0.575246095657,-9.9276304245,0.206804990768
1560000087234189749,-0.0279929041862,0.00977129409974,0.000692719363896,0.750549197197,-9.68837451935,0.181283667684
1560000087238107920,-0.0262977554382,0.010431338176,0.00342297467989,0.509292125702,-9.88973999023,-0.0510649979115
1560000087242027044,-0.0218218652962,0.0150319992272,0.00521848350763,0.292549341917,-9.81122016907,-0.236088693142
1560000087245945215,-0.019092125104,0.0190340310644,0.00347315426916,0.195461630821,-9.89147567749,-0.293144136667
1560000087249864578,-0.0175209287554,0.0163029909536,0.00347315426916,0.234852164984,-9.9705619812,-0.193827927113
1560000087253783703,-0.0153756412451,0.0139721762389,0.00172782491427,0.257448345423,-10.1006727219,-0.233286321163
1560000087257701874,-0.0126460321102,0.0112036999024,0.00172782491427,0.256020247936,-9.97122573853,-0.274015039206
1560000087261621237,-0.00991515290135,0.00748727072317,0.00409761316931,0.33777320385,-9.95262527466,-0.435410648584
1560000087265539646,-0.00557546026019,0.00685494119794,0.00682789465906,0.455373853445,-9.89251422882,-0.398603707552
1560000087269457817,-0.000115490336763,0.00783959692118,0.00696381274611,0.414646685123,-9.95140361786,-0.27770486474
1560000087273375034,0.0035102133367,0.00873618852347,0.00696381274611,0.195419549942,-10.0499000549,-0.13260397315
1560000087277292252,0.00731046812175,0.00873618852347,0.00696381274611,0.0364786460996,-10.029955864,-0.149113595486
1560000087281211376,0.0124606870816,0.00842516974058,0.00521848350763,0.134876698256,-9.91074085236,-0.211935609579
1560000087285130501,0.0138949975371,0.006990859285,0.00521848350763,0.209349855781,-9.76968383789,-0.0451854765415
1560000087289049864,0.0133586377493,0.00470917033027,0.00468212371983,0.303486764431,-9.78699016571,0.291627854109
1560000087292968988,0.0136711432408,0.00197872599724,0.00347315426916,0.161819800735,-9.74596691132,0.414090722799
1560000087296886206,0.0164007108033,0.000994487141405,0.00347315426916,0.0613752901554,-9.61659240723,0.355650126934
1560000087300805330,0.0191303223351,0.00175420783758,0.00347315426916,0.128335684538,-9.53614902496,0.433308243752
1560000087304725647,0.0163990058781,9.54246752372e-06,0.00347315426916,0.214304625988,-9.6335477829,0.740968227386
1560000087308643818,0.0121496682987,9.54246752372e-06,0.00347315426916,0.150480732322,-9.61159038544,0.981397628784
1560000087312561035,0.00973029840339,9.54246752372e-06,0.00226346924084,-0.0265701338649,-9.70143318176,0.966058373451
1560000087316480160,0.00646405540846,0.00130524651637,-1.75042805495e-05,-0.168014153838,-9.43275547028,0.84777700901
1560000087320399761,0.00373295591051,9.54246752372e-06,-1.75042805495e-05,-0.0103678042069,-9.43225097656,0.923961400986
1560000087324319839,0.00100158337144,-0.0024118962366,-1.75042805495e-05,0.165218159556,-9.35158348083,1.03904473782
1560000087328238964,-0.00172922169184,-0.00348111591302,-1.75042805495e-05,0.186370462179,-9.41165542603,1.01906013489
1560000087332156181,-0.00445854179181,-0.00083553983644,-1.75042805495e-05,-0.0510529056191,-9.33271503448,0.884320139885
1560000087336075544,-0.00907475774921,9.54246752372e-06,-0.000157741877145,-0.205486595631,-9.4734582901,0.749252319336
1560000087339993715,-0.0145349844426,9.54246752372e-06,-0.00288785548912,-0.123780913651,-9.63308334351,0.768464326859
1560000087343912840,-0.0175209287554,-0.000355009216915,-0.00561804360347,0.0771580412984,-9.70370292664,0.694704115391
1560000087347832918,-0.0161702414175,-0.00308647331807,-0.00564813454448,0.178459584713,-9.66515636444,0.532731890678
1560000087351751328,-0.0175209287554,-0.00756218779529,-0.00525349192321,0.182982608676,-9.76643371582,0.353971123695
1560000087355668545,-0.0190954480867,-0.0102916223524,-0.00682801041431,0.143901214004,-9.74691867828,0.294921904802
1560000087359585762,-0.0218246003496,-0.00790409031017,-0.00699882116169,0.132858663797,-9.63742733002,0.254547506571
1560000087363503933,-0.022809069193,-0.0070239282485,-0.00705097478739,0.107089214027,-9.74833774567,0.116391055286
1560000087367422104,-0.0234654159607,-0.00975393305665,-0.00874415040016,0.138377547264,-9.6599779129,-0.0642900764942
1560000087371342421,-0.0207339889852,-0.0142306898238,-0.00874415040016,0.192227885127,-9.83045005798,-0.153990715742
1560000087375260830,-0.0180039340213,-0.0156984198838,-0.00748182616985,0.213044732809,-9.92996788025,-0.11390465498
1560000087379179001,-0.0170189884174,-0.0122077623382,-0.00525349192321,0.411407709122,-9.91018104553,-0.118483960629
1560000087383098125,-0.0142881484145,-0.0122077623382,-0.00525349192321,0.53416031599,-10.0308837891,-0.220038831234
1560000087387016296,-0.011558675836,-0.0129340275422,-0.00350816268474,0.416564851999,-10.0711917877,-0.276913315058
1560000087390934467,-0.00882851175615,-0.015664190709,-0.0052192627301,0.198658525944,-10.0911226273,-0.291824907064
1560000087394852877,-0.00704895332456,-0.0193446045077,-0.00620391915026,0.147709086537,-10.0112190247,-0.291240721941
1560000087398772955,-0.00511261473235,-0.0244250670075,-0.00699882116169,0.234862685204,-9.93095588684,-0.233962923288
1560000087402691126,-0.00120726712792,-0.0256005814995,-0.00582330729694,0.451804667711,-9.87093448639,-0.199379652739
1560000087406609297,0.000761827253317,-0.0279157254845,-0.00176283356268,0.59920245409,-9.83065128326,-0.143172264099
1560000087410526514,0.00482187663282,-0.0279157254845,-0.000363979001164,0.390098214149,-9.8302230835,-0.108599126339
1560000087414443731,0.00755142550209,-0.0261703971773,-0.000655249215348,0.0898205563426,-9.74961280823,-0.0426490008831
1560000087418362141,0.00865900982171,-0.0277923285084,-0.00338476565099,0.0298645030707,-9.84841442108,0.0789584219456
1560000087422282219,0.0104043390602,-0.0296610537916,-0.00350816268474,0.264735579491,-9.74783325195,0.192575514317
1560000087426201344,0.0104043390602,-0.0315093598294,-0.00165985413166,0.669744729996,-9.80647468567,0.383210092783
1560000087430119991,0.0104043390602,-0.0353277232532,-1.75042805495e-05,0.706892192364,-9.76561164856,0.501670360565
1560000087434038162,0.0104043390602,-0.0366423688829,-0.00208996844561,0.355169743299,-9.63456058502,0.628209292889
1560000087436700106,0.0104043390602,-0.0357673741666,-0.00350816268474,-0.00584479607642,-9.53352928162,0.745200753212
1560000087440618038,0.00985413586146,-0.0366423688829,-0.00121263035019,-0.0882161334157,-9.43298816681,0.826062440872
1560000087444537878,0.00712279458713,-0.0381785865767,0.00151871091561,0.227406799793,-9.41233730316,0.938428282738
1560000087448455811,0.00187169155839,-0.0426540223865,0.00172782491427,0.504598259926,-9.37249565125,0.951873660088
1560000087452373743,-6.76363852108e-05,-0.0471296280339,-1.75042805495e-05,0.404287308455,-9.3521194458,0.993836641312
1560000087456289768,-0.00106577391976,-0.0498578114938,0.000980633237355,0.1168262586,-9.43139743805,1.04068422318
1560000087460207701,-0.00554130648668,-0.0523503348231,0.00172782491427,-0.0488413497806,-9.57148361206,0.985581159592
1560000087464125395,-0.00827116561761,-0.0511281205735,0.000505612651782,0.0918612852693,-9.57241535187,0.882790088654
1560000087468045473,-0.01146569056,-0.0506050027907,-1.75042805495e-05,0.214778885245,-9.68329811096,0.761233687401
1560000087471963406,-0.0169255867315,-0.0520526633347,-1.75042805495e-05,0.235001057386,-9.57456016541,0.630481958389
1560000087475879431,-0.0199522323842,-0.0537222817412,-1.75042805495e-05,0.121758289635,-9.74576950073,0.434915810823
1560000087479796410,-0.0193415282639,-0.0575110504059,-0.00168756418191,0.0437711551785,-9.65731239319,0.256680756807
1560000087483715296,-0.0192662589252,-0.0619866019013,-1.75042805495e-05,0.125987887383,-9.72806835175,0.155685573816
1560000087487633944,-0.0210115872324,-0.0626725010777,-1.75042805495e-05,0.168324038386,-9.72939682007,-0.00468865036964
1560000087491552114,-0.0198771158174,-0.0588080348328,-1.75042805495e-05,0.172993764281,-9.89016437531,-0.133214622736
1560000087495467901,-0.0171486983843,-0.0579585497184,-0.000389734462301,-0.00388675369322,-9.95038414001,-0.18862298131
1560000087499386072,-0.0144183057216,-0.0620462337797,-0.00176283356268,-0.118908829987,-10.0910005569,-0.304644614458
1560000087503304005,-0.011688707282,-0.0669092021708,-0.00291192896651,0.0797791257501,-10.0713748932,-0.329159528017
1560000087507222652,-0.00737682654101,-0.0680582970381,-0.00176283356268,0.235512584448,-9.93127918243,-0.273834139109
1560000087511139631,-0.0019176058681,-0.0654926246755,-0.00350816268474,0.333559393883,-9.91091823578,-0.216383010149
1560000087515057564,-8.47831667182e-06,-0.0645676404238,-0.00350816268474,0.233232676983,-9.94995117188,-0.114217489958
1560000087518973589,0.00376338396514,-0.065610485416,-0.00246531720564,0.0933424308896,-9.94942188263,-0.0612653195858
1560000087522891521,0.00747840382936,-0.0665953302033,-0.00204519516691,0.0695905387402,-9.88805580139,0.118203997612
1560000087526810408,0.0104043390602,-0.0680582970381,-0.00350816268474,0.137824416161,-9.90727519989,0.216457292438
1560000087530730247,0.0104043390602,-0.072565607339,-0.00525349192321,0.221435129642,-9.70641422272,0.37262147665
1560000087534648180,0.0089114504462,-0.076532504457,-0.00525349192321,0.3575989604,-9.66547775269,0.508793592453
1560000087538567066,0.00865900982171,-0.0785302743316,-0.00525349192321,0.355185508728,-9.57515144348,0.568006753922
1560000087542484999,0.00865900982171,-0.0785302743316,-0.00525349192321,0.274554073811,-9.65372753143,0.719830393791
1560000087546402216,0.00865900982171,-0.0794866505028,-0.0042971152416,0.190888211131,-9.53273677826,0.860366940498
1560000087550320148,0.00516835134476,-0.0787262660518,-0.00156684173298,0.149526923895,-9.53189373016,0.960934400558
1560000087554237843,0.002807345231,-0.0814561050657,-1.75042805495e-05,0.226112261415,-9.39188861847,0.998103141785
1560000087558155775,-6.76363852108e-05,-0.0872569158673,-0.00218254988689,0.306864112616,-9.47181892395,0.996851921082
1560000087562073708,-0.00287657509469,-0.0886613844785,-0.00350816268474,0.3869818151,-9.49201488495,0.975269198418
1560000087565991640,-0.00833622638037,-0.0872569158673,-0.00111919701867,0.447545707226,-9.55196285248,0.97433078289
1560000087569909573,-0.0121678327884,-0.0856286957492,-1.75042805495e-05,0.449804604053,-9.61250305176,0.8949842453
1560000087573826313,-0.0131518751338,-0.0846331928842,-1.75042805495e-05,0.43188598752,-9.6134557724,0.775815367699
1560000087577744484,-0.0140302702785,-0.0856182208406,-1.75042805495e-05,0.313179582357,-9.55418205261,0.688377857208
1560000087581662416,-0.0140302702785,-0.0883481818495,-1.75042805495e-05,0.237254679203,-9.65490341187,0.571202874184
1560000087585579395,-0.0126146401864,-0.0928226072099,0.000312194857666,0.238879412413,-9.65571212769,0.471524894238
1560000087589495420,-0.0153433790716,-0.0968644541329,0.00304093449572,0.303643971682,-9.80687332153,0.301727563143
1560000087593413115,-0.0175209287554,-0.099474221468,0.00347315426916,0.505408465862,-9.82839012146,0.127959579229
1560000087597330093,-0.0175209287554,-0.099474221468,0.00500951545579,0.548378765583,-9.88945198059,-0.0120832622051
1560000087601248026,-0.0175209287554,-0.0977288931608,0.00521848350763,0.350020974874,-9.88943576813,-0.0275714993477
1560000087605164051,-0.0140169766673,-0.0977288931608,0.00348644788029,0.174911901355,-10.0099525452,-0.132423073053
1560000087609080791,-0.0112875390874,-0.0967314917404,0.00422108155501,0.0557128041983,-9.97023963928,-0.169889658689
1560000087612998724,-0.00855740807154,-0.0962204392188,0.00347315426916,0.0179206933826,-9.99097824097,-0.268546253443
1560000087616918802,-0.00460369934275,-0.101396772176,0.00347315426916,0.195430070162,-10.0102939606,-0.172738999128
1560000087620835781,-0.00135150886835,-0.106916998646,0.004757026763,0.273928284645,-10.0098800659,-0.11471119523
1560000087624752760,0.00282352233537,-0.109646449037,0.00347315426916,0.253420650959,-9.96993255615,-0.114530295134
1560000087628668547,0.00516835134476,-0.107517460569,0.00172782491427,0.151982903481,-9.90938472748,-0.042927801609
1560000087632586479,0.0068362802082,-0.104787614174,5.9896092552e-05,0.049093388021,-9.80850124359,0.0782498419285
1560000087636503458,0.010472770012,-0.105617093451,0.00354158516505,0.0859264209867,-9.72787094116,0.176510632038
1560000087640424252,0.0140428788626,-0.10834875178,0.00521848350763,0.143885448575,-9.80632686615,0.355124443769
1560000087644341230,0.0167722655694,-0.111078137279,0.00408654438655,0.199473083019,-9.63603401184,0.432411283255
1560000087648257971,0.015269601493,-0.113436855376,0.00172782491427,0.198631793261,-9.74454784393,0.592621564865
1560000087652173996,0.0125408425465,-0.112082701108,0.00172782491427,0.0760259628296,-9.68333530426,0.744411230087
1560000087656091928,0.0121496682987,-0.109352847295,0.00172782491427,-0.0270233824849,-9.57247066498,0.865522861481
1560000087660009146,0.0121496682987,-0.106623314358,0.000150268015219,0.010139843449,-9.47219848633,0.923780560493
1560000087663928032,0.0121496682987,-0.106455542147,-0.000835191428556,0.119095645845,-9.45233058929,0.921202540398
1560000087667846680,0.0120925097397,-0.108258028983,-1.75042805495e-05,0.167796716094,-9.43208885193,0.9598300457
1560000087671763659,0.00832163689346,-0.109946198761,-1.75042805495e-05,0.188608303666,-9.5514087677,1.01998353004
1560000087675681591,0.0048876238767,-0.108200870454,-0.00176283356268,0.169059723616,-9.5713558197,1.02056026459
1560000087679598570,0.00215810291112,-0.106935951934,-0.00302775267348,0.148882269859,-9.51176738739,0.980737924576
1560000087683517694,-0.00107764374973,-0.104205208269,-0.00350816268474,0.170045092702,-9.53223419189,0.920618414879
1560000087687435389,-0.00504783773198,-0.102964878082,-0.00350816268474,0.250168085098,-9.53262805939,0.878968238831
1560000087691353321,-0.00704895332456,-0.102964878082,-0.00103377206083,0.391499578953,-9.61309623718,0.816576004028
1560000087695271254,-0.00876222671524,-0.104678157872,-1.75042805495e-05,0.453848063946,-9.68383407593,0.716025590897
1560000087699189186,-0.0105396118015,-0.10471021384,-0.000970317550403,0.417043924332,-9.65554904938,0.507393479347
1560000087703106165,-0.00879428256303,-0.10471021384,-1.75042805495e-05,0.377957284451,-9.65583705902,0.468411743641
1560000087707024097,-0.0099705727021,-0.10471021384,-1.75042805495e-05,0.321090906858,-9.74627017975,0.390597224236
1560000087710941792,-0.0105396118015,-0.102134322295,-1.75042805495e-05,0.281359642744,-9.72643280029,0.37141919136
1560000087714857817,-0.0105396118015,-0.0980754995346,-1.75042805495e-05,0.324314117432,-9.84690284729,0.291578888893
1560000087718775988,-0.00815617275598,-0.0983670026274,-0.000655614103561,0.385548919439,-9.82796096802,0.170499175787
1560000087722693920,-0.00542620248801,-0.101096971439,-0.00014008268554,0.427224636078,-9.86857223511,0.0901311933994
1560000087726611614,-0.00444142355755,-0.101219549775,-1.75042805495e-05,0.557327508926,-9.92858123779,0.0876361578703
1560000087730530500,-0.00345659628878,-0.0992708244589,-1.75042805495e-05,0.578170657158,-9.92908477783,0.0273846536875
1560000087734448433,-0.000726370327708,-0.0938103754323,-1.75042805495e-05,0.549023389816,-9.90957832336,-0.0318869650364
1560000087738367319,0.000259208175766,-0.0886753997906,0.000309340269527,0.392330795527,-9.98978042603,-0.0876081287861
1560000087742285490,0.00298880782674,-0.085945801608,0.00172782491427,0.210932552814,-9.92891693115,0.0156767070293
1560000087746204376,0.00571978730473,-0.0860630232259,0.00172782491427,0.208668425679,-9.88817977905,0.115090832114
1560000087750122309,0.00844981624199,-0.0903291855454,0.00019168929394,0.385858118534,-9.88753223419,0.210766151547
1560000087754040241,0.0111797086366,-0.0940436465647,0.000757865276458,0.631957888603,-9.8074092865,0.264486014843
1560000087757960320,0.0121496682987,-0.0959509964367,-1.2200637865e-06,0.64957255125,-9.72708415985,0.323320358992
1560000087761878014,0.0121496682987,-0.0904911242399,0.00172782491427,0.419452100992,-9.76567745209,0.468247830868
1560000087765794992,0.0121496682987,-0.0872569158673,0.00148870022667,0.13534528017,-9.5347032547,0.612506151199
1560000087769711971,0.0121496682987,-0.0860335082111,0.00120590399789,0.09348603338,-9.57322406769,0.783112049103
1560000087773631811,0.00819489578541,-0.083766259253,-1.75042805495e-05,0.171355381608,-9.49327468872,0.800741076469
1560000087777549744,0.00691368058324,-0.0852152990332,-1.75042805495e-05,0.349184453487,-9.53255558014,0.896680235863
1560000087781467676,0.00691368058324,-0.0855115875602,0.00172782491427,0.469022959471,-9.61219787598,0.934410691261
1560000087785384417,0.00524175846142,-0.0838396663305,0.00172782491427,0.289878308773,-9.63167858124,0.978416323662
1560000087789302588,0.00334541830771,-0.0784526705744,-1.75042805495e-05,0.152904704213,-9.66230964661,0.882049441338
1560000087793220520,-6.76363852108e-05,-0.0732942819595,-1.75042805495e-05,0.153724968433,-9.63300895691,0.802109241486
1560000087797138453,-0.001203063888,-0.0732942819595,-1.75042805495e-05,0.274402111769,-9.61404037476,0.689663052559
1560000087801056385,-0.00143788687168,-0.0715489536524,-1.75042805495e-05,0.490217357874,-9.51384735107,0.753885984421
1560000087804974079,-0.00142718215621,-0.0715489536524,-1.75042805495e-05,0.493592470884,-9.65416526794,0.685034811497
1560000087808891058,-0.00241090857359,-0.0698036253452,-1.75042805495e-05,0.395241737366,-9.59515094757,0.567249178886
1560000087812808990,-0.00514110510734,-0.0698036253452,0.00156530593959,0.316088378429,-9.61504554749,0.569160103798
1560000087816727161,-0.00704895332456,-0.0672361452225,-1.75042805495e-05,0.258236587048,-9.74460124969,0.591287374496
1560000087820645094,-0.00879428256303,-0.062822304666,-1.75042805495e-05,0.297189682722,-9.63531494141,0.529865562916
1560000087824561834,-0.00879428256303,-0.0617767378535,-1.75042805495e-05,0.379076212645,-9.72571372986,0.468873441219
1560000087828479767,-0.00879428256303,-0.0610769800842,-1.75042805495e-05,0.399125367403,-9.65649986267,0.388224631548
1560000087832396746,-0.00752569193485,-0.0598083874252,-1.75042805495e-05,0.421391278505,-9.80625247955,0.388769298792
1560000087836314678,-0.00704895332456,-0.0570779233676,-0.000525900941557,0.361786514521,-9.80619907379,0.390103518963
1560000087840232611,-0.0100349660549,-0.0558409914374,-0.000269827160188,0.343836396933,-9.92597103119,0.391339808702
1560000087844150305,-0.00980761356363,-0.053363665283,0.000714493939014,0.422051697969,-9.76696968079,0.308763086796
1560000087848066330,-0.00536375089546,-0.0523503348231,0.00172782491427,0.484224647284,-9.88713550568,0.268349230289
1560000087851984262,-0.00355829484761,-0.0523503348231,0.000773319543338,0.404788345098,-9.74844169617,0.129655569792
1560000087855902433,-0.00549828739126,-0.0504103395894,-1.75042805495e-05,0.426910191774,-9.82880401611,0.0699317455292
1560000087859820366,-0.00587017512676,-0.0465021168299,-1.75042805495e-05,0.429494053125,-9.88950634003,-0.0293504595757
1560000087863738060,-0.00139486368947,-0.0432055841367,-1.75042805495e-05,0.450829833746,-9.87044906616,-0.13957285881
1560000087867655993,0.001335373977,-0.0418783575296,-1.75042805495e-05,0.47230181098,-9.95048713684,-0.159425526857
1560000087871573925,0.00231954585665,-0.0418783575296,0.00236967794591,0.314964622259,-10.0105619431,-0.19534304738
1560000087875491858,0.00504971471908,-0.0418783575296,0.00509984688195,0.234516710043,-10.0100059509,-0.133757293224
1560000087879407883,0.011269028483,-0.0410136685682,0.0043537940848,0.14493650198,-10.049451828,-0.0816531181335
1560000087883326769,0.0157448493832,-0.0401330292225,0.00326410729862,0.151951342821,-10.0282030106,0.0774773061275
1560000087887244701,0.0173856560141,-0.0390436109737,-1.75042805495e-05,0.248074740171,-9.90785694122,0.154204457998
1560000087891164541,0.019460675649,-0.0366423688829,-1.75042805495e-05,0.342568129301,-9.80650520325,0.350677073002
1560000087895082474,0.0221907918176,-0.0366423688829,-1.75042805495e-05,0.356603085995,-9.74420452118,0.64887046814
1560000087899001360,0.024366972968,-0.0343422825678,-1.75042805495e-05,0.231908768415,-9.59282684326,0.839937567711
1560000087902918339,0.024366972968,-0.0316129153992,-1.75042805495e-05,0.128678545356,-9.55119419098,1.04125344753
1560000087906837463,0.0210637417861,-0.0288821032856,-0.00176283356268,0.125140890479,-9.41079425812,1.1200722456
