#timestamp [ns],w_RS_S_x [rad s^-1],w_RS_S_y [rad s^-1],w_RS_S_z [rad s^-1],a_RS_S_x [m s^-2],a_RS_S_y [m s^-2],a_RS_S_z [m s^-2]1560051885998279333,-0.00879428256303,-0.520098567009,-0.00233185052661,0.215916216373,-9.68386363983,0.691459059715
1560051886002193213,-0.00837738044862,-0.522260815669,-0.00176283356268,0.159214943647,-9.76447677612,0.593642950058
1560051886006105900,-0.00845123914157,-0.522186956385,-0.00176283356268,0.160834431648,-9.78508853912,0.514032542706
1560051886010019779,-0.00943796421651,-0.517065872172,-0.0058971735767,0.16116464138,-9.7654466629,0.474029421806
1560051886013932705,-0.00891057155623,-0.513233543704,-0.00699882116169,0.242901831865,-9.8062543869,0.372836351395
1560051886017846107,-0.00704895332456,-0.509626626968,-0.00612906804236,0.342887818813,-9.82647037506,0.350809007883
1560051886021759033,-0.00530362408608,-0.509626626968,-0.00350816268474,0.402817606926,-9.82668495178,0.329539179802
1560051886025671959,-0.00639921904487,-0.507435419512,-0.00460375764353,0.364684790373,-9.90667057037,0.311020791531
1560051886029583454,-0.00704895332456,-0.504055402491,-0.00525349192321,0.344816505909,-9.90665340424,0.311465501785
1560051886033498287,-0.00572701666053,-0.500001404791,-0.00525349192321,0.404091119766,-9.92634677887,0.350134402514
1560051886037411213,-0.00299621413465,-0.496847208501,-0.00581557263617,0.483889132738,-9.92658042908,0.328419864178
1560051886041324854,-0.000264925546687,-0.494115918243,-0.00699882116169,0.502478659153,-9.84673976898,0.327447414398
1560051886045237780,-6.76363852108e-05,-0.491384906403,-0.0044650905424,0.381979733706,-9.80637931824,0.369723200798
1560051886049150467,0.00167769286782,-0.488654195084,-0.00179129572968,0.341268330812,-9.80585861206,0.430419445038
1560051886053064108,0.00167769286782,-0.485922500558,-0.00452298560479,0.320750147104,-9.80551815033,0.470735371113
1560051886056977987,0.00193353650901,-0.479444314034,-0.00525349192321,0.379049926996,-9.82472801208,0.569211006165
1560051886060890913,0.00342302210629,-0.475224115335,-0.00525349192321,0.436401098967,-9.74443817139,0.627155900002
1560051886064804554,0.00516835134476,-0.472492829089,-0.00525349192321,0.494223982096,-9.72379970551,0.715399980545
1560051886068717241,0.00370115698693,-0.466827776408,-0.00378629756538,0.532996237278,-9.68374443054,0.734182238579
1560051886072631121,0.00167769286782,-0.463539554038,-0.00350816268474,0.412007212639,-9.65304374695,0.816395163536
1560051886076544046,0.00167769286782,-0.460808943396,-0.00181440177944,0.293596833944,-9.70284843445,0.819393396378
1560051886080457687,0.00342302210629,-0.457142792188,-0.00444279776847,0.192486658692,-9.63255977631,0.861026525497
1560051886084372282,0.00150136318319,-0.453776061535,-0.00525349192321,0.271954476833,-9.65243434906,0.879315137863
1560051886088286161,-0.00122996831339,-0.452613740141,-0.00525349192321,0.390514224768,-9.65221691132,0.916517853737
1560051886092200041,-0.00221656597409,-0.449478204621,-0.00350816268474,0.510528385639,-9.68243312836,0.89411175251
1560051886096113682,-0.00355829484761,-0.444015403575,-0.00350816268474,0.490990251303,-9.662774086,0.854553341866
1560051886100027561,-0.00593405267543,-0.438552578572,-0.00350816268474,0.353052288294,-9.65331363678,0.777858138084
1560051886103940248,-0.00704895332456,-0.436322778463,-0.00350816268474,0.214128986001,-9.68297481537,0.801104784012
1560051886107852936,-0.00615972923019,-0.436322778463,-0.00525349192321,0.214453935623,-9.68313694,0.781169176102
1560051886111766815,-0.00714598074591,-0.434577435255,-0.00350816268474,0.25565803051,-9.6640958786,0.670502066612
1560051886115680695,-0.00879428256303,-0.434577435255,-0.00350816268474,0.336740076542,-9.72438526154,0.629247665405
1560051886119593620,-0.0108631905639,-0.432508540497,-0.00350816268474,0.376476615667,-9.72442054749,0.628358244896
1560051886123507023,-0.01228494104,-0.42715880284,-0.00350816268474,0.31848603487,-9.76478004456,0.570149481297
1560051886127420902,-0.01228494104,-0.422360152006,-0.004703395539,0.201530054212,-9.84501838684,0.513538837433
1560051886131334782,-0.010748565039,-0.42389651407,-0.00350816268474,0.162448659539,-9.82550239563,0.45448961854
1560051886135248423,-0.0105396118015,-0.424105465412,-0.00350816268474,0.163109079003,-9.78621959686,0.374483376741
1560051886139162302,-0.0123030836656,-0.422360152006,-0.00350816268474,0.20445984602,-9.82666873932,0.314050972462
1560051886143074989,-0.013026523182,-0.423363889997,-0.00350816268474,0.204795300961,-9.78722476959,0.253980338573
1560051886146988869,-0.0102947962283,-0.422360152006,-0.00525349192321,0.165692895651,-9.84692192078,0.275201201439
1560051886150902510,-0.00756346915041,-0.421129328742,-0.00525349192321,0.206074073911,-9.86708450317,0.254508048296
1560051886154816389,-0.00530362408608,-0.420614808798,-0.00350816268474,0.206713467836,-9.90701389313,0.254771888256
1560051886158730268,-0.00384538357306,-0.419156581513,-0.00496640319776,0.206074073911,-9.86708450317,0.254508048296
1560051886162643909,-0.00285963082002,-0.414680151285,-0.00525349192321,0.206068828702,-9.88688659668,0.274575561285
1560051886166558504,-0.000127693876877,-0.413633495569,-0.00356822017691,0.184932291508,-9.7674036026,0.234357580543
1560051886170471430,0.000858368633886,-0.413633495569,-0.00176283356268,0.16552516818,-9.86664485931,0.305236518383
1560051886174385309,-6.76363852108e-05,-0.412054914189,-0.00192959404519,0.134276255965,-9.80648040771,0.335411220789
1560051886178299189,-6.76363852108e-05,-0.413633495569,-0.00350816268474,0.103818692267,-9.82593345642,0.396017044783
1560051886182212591,0.000325981659603,-0.417124152184,-0.00176283356268,0.20154581964,-9.78560829163,0.453336298466
1560051886186126471,0.00167769286782,-0.417124152184,-0.00314281917506,0.278765261173,-9.70533657074,0.510836422443
1560051886190040350,-6.76363852108e-05,-0.414758205026,-0.00587410150254,0.279399424791,-9.7650680542,0.53116774559
1560051886193952084,-6.76363852108e-05,-0.41042177094,-0.00539295799017,0.157930925488,-9.7044210434,0.613182783127
1560051886197864771,0.00167769286782,-0.407551797679,-0.00615311542264,0.0989812463522,-9.68488883972,0.554578304291
1560051886201778650,-6.76363852108e-05,-0.406738723617,-0.00525349192321,0.0989812463522,-9.68488883972,0.554578304291
1560051886205693245,-6.76363852108e-05,-0.410544261078,-0.00525349192321,0.157941430807,-9.66481494904,0.573047757149
1560051886209607124,-6.76363852108e-05,-0.411573893249,-0.00525349192321,0.295884609222,-9.65447235107,0.629675447941
1560051886213520050,-6.76363852108e-05,-0.408843027022,-0.00525349192321,0.43544203043,-9.68454456329,0.62676012516
1560051886217433691,-0.000608601732431,-0.406652182341,-0.00525349192321,0.375517517328,-9.66452598572,0.627962470055
1560051886221348286,-0.00181296560913,-0.406652182341,-0.00525349192321,0.238373577595,-9.7247800827,0.571664571762
1560051886225261211,-0.00181296560913,-0.40413881522,-0.00525349192321,0.160514742136,-9.76512336731,0.513900637627
1560051886229174137,-0.00182062184487,-0.399670869112,-0.00525349192321,0.131042540073,-9.74545574188,0.474564611912
1560051886233089924,-0.00455381987872,-0.400666385112,-0.0042579668921,0.163109079003,-9.78621959686,0.374483376741
1560051886237002611,-0.00553928614219,-0.405378162993,-0.00152717150068,0.222079768777,-9.72654056549,0.352817803621
1560051886240917206,-0.00704895332456,-0.410842386808,-1.75042805495e-05,0.361157655716,-9.72666454315,0.349704653025
1560051886244829178,-0.00751111390054,-0.41270917491,-0.00176283356268,0.402828127146,-9.78707885742,0.289404153824
1560051886248744011,-0.00879428256303,-0.407244665114,-0.00176283356268,0.323679983616,-9.78716945648,0.271247506142
1560051886252656698,-0.00635994191918,-0.400038160443,-0.000706515703163,0.185566410422,-9.82713699341,0.254688948393
1560051886256571531,-0.00362735603861,-0.397925525904,-0.00343910149835,0.1682767272,-9.90762519836,0.175918996334
1560051886260485172,-0.00264135644153,-0.397008595815,-0.00525349192321,0.187510848045,-9.84790992737,0.155142903328
1560051886264400005,-0.00197123845771,-0.396180212498,-0.00541176477179,0.266983956099,-9.84798049927,0.1533639431
1560051886268312693,-0.0024145390584,-0.398467722855,-0.00585506537248,0.384909540415,-9.78803157806,0.170235335827
1560051886272226572,-0.00181296560913,-0.402776611761,-0.00137792266901,0.40542241931,-9.8081741333,0.149986922741
1560051886276140451,-0.00181296560913,-0.400045055403,-0.00138864386803,0.327878057957,-9.88828659058,0.112422406673
1560051886280055285,-0.0012000785551,-0.399670869112,-0.00063039135502,0.207064688206,-9.80815792084,0.134498715401
1560051886283968687,-6.76363852108e-05,-0.39807213623,-0.00176283356268,0.187841057777,-9.82826805115,0.11513979733
1560051886287882566,-6.76363852108e-05,-0.393595414988,-0.00260229542303,0.247445881367,-9.82832050323,0.11380559206
1560051886291797400,-6.76363852108e-05,-0.392771232617,-0.00525349192321,0.30478656292,-9.7876367569,0.211885482073
1560051886295711279,-6.76363852108e-05,-0.393367243943,-0.00525349192321,0.305441707373,-9.76815605164,0.151946768165
1560051886299624920,-6.76363852108e-05,-0.390019625784,-0.00525349192321,0.344203412533,-9.76770782471,0.210864081979
1560051886303538799,0.00122667867503,-0.383119584135,-0.00525349192321,0.244542390108,-9.74765396118,0.212955847383
1560051886307452440,-6.76363852108e-05,-0.376446221334,-0.00525349192321,0.223693981767,-9.766954422,0.293274879456
1560051886311366320,-6.76363852108e-05,-0.37523624301,-0.00525349192321,0.26166960597,-9.66708564758,0.301693588495
1560051886315281868,0.00167769286782,-0.373490929604,-0.00525349192321,0.3605235219,-9.66693210602,0.329373300076
1560051886319196701,0.00167220271267,-0.373485439405,-0.00350816268474,0.459529429674,-9.70646476746,0.387220203876
1560051886323110580,-6.76363852108e-05,-0.36877086553,-0.00251658577805,0.479248374701,-9.65689468384,0.346574485302
1560051886327024460,-6.76363852108e-05,-0.3625542639,-0.00176283356268,0.458884775639,-9.68633937836,0.407023906708
1560051886330938339,-6.76363852108e-05,-0.35830931641,-0.00298180147275,0.399279952049,-9.6862859726,0.408358097076
1560051886334851742,-0.000527020997587,-0.353832915031,-0.00442693191715,0.318837285042,-9.66592693329,0.449876308441
1560051886338766575,-0.0032592004463,-0.351100738398,-0.00699882116169,0.298319101334,-9.66558551788,0.490192234516
1560051886342680454,-0.00461637264319,-0.351488891918,-0.0063115697188,0.437237143517,-9.65572834015,0.487013101578
1560051886346594334,-0.00355829484761,-0.350873376183,-0.00525349192321,0.586254477501,-9.6360578537,0.463610053062
1560051886350507975,-0.00621773339567,-0.345482772452,-0.00259405343612,0.706593513489,-9.66643428802,0.421268343925
1560051886354421854,-0.00720450382719,-0.338273232819,-0.00176283356268,0.607577085495,-9.66650772095,0.4035564363
1560051886358334541,-0.00993503671749,-0.332812169952,-0.00176283356268,0.480372518301,-9.7069683075,0.326968699694
1560051886362247229,-0.01228494104,-0.329096435597,-0.000398125305297,0.401549369097,-9.70722007751,0.288876473904
1560051886366161108,-0.01228494104,-0.324999531014,-0.000395331530401,0.422381937504,-9.74732875824,0.268759965897
1560051886370074987,-0.01228494104,-0.322268242443,-0.00176283356268,0.553134679794,-9.80766105652,0.226393759251
1560051886373988628,-0.01228494104,-0.317942845097,-0.00176283356268,0.632938027382,-9.78809165955,0.184611707926
1560051886377901316,-0.01228494104,-0.312481435191,-0.000851655830062,0.654425799847,-9.80871963501,0.104556530714
1560051886381815195,-0.012209577706,-0.306942333605,-0.00176283356268,0.634562730789,-9.78889942169,0.0849337279797
1560051886385729074,-0.0105396118015,-0.300871040427,-0.00176283356268,0.544526696205,-9.70928382874,0.0465361773968
1560051886389642715,-0.010237161334,-0.298139314804,-0.00176283356268,0.468261003494,-9.86925411224,0.00949934124947
1560051886393556356,-0.00879428256303,-0.295408443033,-0.00176283356268,0.489407986403,-9.94913101196,0.00958228111267
1560051886397469282,-0.00879428256303,-0.29389396201,-1.75042805495e-05,0.509265840054,-9.98875522614,0.0492725819349
1560051886401384115,-0.00879428256303,-0.289945029041,-1.75042805495e-05,0.530412852764,-10.0686311722,0.0493555366993
1560051886405297756,-0.0062927326909,-0.288202670795,-0.00176283356268,0.546109378338,-9.86851787567,0.107398360968
1560051886411344528,-0.00530362408608,-0.284480578413,-0.00176283356268,0.526256859303,-9.80908870697,0.0476405322552
1560051886415259838,-0.00530362408608,-0.280765998677,-1.75042805495e-05,0.383636027575,-9.68836975098,0.149640128016
1560051886419173956,-0.00333341293912,-0.276823154759,-0.00024238619466,0.263451546431,-9.6877784729,0.212115347385
1560051886423088551,-0.000601818522962,-0.267417242384,-0.00176283356268,0.302857905626,-9.7074546814,0.251228958368
1560051886427002907,-6.76363852108e-05,-0.265280514956,-0.00176283356268,0.302857905626,-9.7074546814,0.251228958368
1560051886430918217,-6.76363852108e-05,-0.262401920358,-0.000323535459921,0.402817606926,-9.82668495178,0.329539179802
1560051886434833527,-0.00181296560913,-0.25761863588,-1.75042805495e-05,0.422345161438,-9.88595104218,0.409232616425
1560051886438747883,-0.00181296560913,-0.254887385828,-0.00168399212994,0.481305330992,-9.86587810516,0.427702069283
1560051886442661047,-0.00181296560913,-0.252156594833,-1.75042805495e-05,0.439325660467,-9.74589252472,0.447735607624
1560051886446575642,-0.00181296560913,-0.247679290936,-1.75042805495e-05,0.357135206461,-9.57612133026,0.448393195868
1560051886450489998,-0.00294702225628,-0.244947832634,-1.75042805495e-05,0.21774289012,-9.53622913361,0.431306898594
1560051886454404354,-0.00530362408608,-0.241841071701,-1.75042805495e-05,0.197864115238,-9.57581806183,0.471886664629
1560051886458318710,-0.00530362408608,-0.237739444298,-0.00137862456899,0.317382872105,-9.63549518585,0.509485244751
1560051886462232828,-0.00530362408608,-0.233262939339,-0.00116119694139,0.518159389496,-9.70603370667,0.445692777634
1560051886466147184,-0.00530362408608,-0.230531436445,-1.75042805495e-05,0.609165072441,-9.80593681335,0.44435107708
1560051886470061541,-0.00613260998769,-0.227799605244,-1.75042805495e-05,0.540270805359,-9.8260011673,0.426104009151
1560051886473976135,-0.0105396118015,-0.223252832843,-0.00183272006456,0.440625458956,-9.74653911591,0.367993205786
1560051886477889299,-0.0115948263202,-0.218846735212,-0.00350816268474,0.400425165892,-9.65714645386,0.308482259512
1560051886481802702,-0.01228494104,-0.213779160179,-0.00350816268474,0.380562156439,-9.63732624054,0.28885948658
1560051886485717058,-0.01228494104,-0.205584721683,-0.00350816268474,0.441136538982,-9.65766811371,0.247786000371
1560051886489631414,-0.01228494104,-0.202448651195,-0.00176283356268,0.552186191082,-9.70816135406,0.185862958431
1560051886493546724,-0.01228494104,-0.200938962388,-0.00176283356268,0.593846082687,-9.8081817627,0.16569750011
1560051886497460842,-0.01228494104,-0.197457767925,-0.0025129472405,0.595114350319,-9.92764759064,0.206360250711
1560051886501375198,-0.01228494104,-0.193731158813,-0.00177198272107,0.525895118713,-9.94755077362,0.20804874599
1560051886505289793,-0.0113075700055,-0.188276612019,-0.00176283356268,0.527525067329,-9.92855453491,0.0883032679558
1560051886509205103,-0.0103206344067,-0.18281208339,-0.00198181094288,0.466002106667,-9.80871200562,0.088845923543
1560051886513119459,-0.00758908721425,-0.178554173595,-0.00350816268474,0.504769086838,-9.78846073151,0.127695739269
1560051886517033577,-0.00530362408608,-0.1797593683,-0.00350816268474,0.552830755711,-9.72828865051,0.166059285402
1560051886520947933,-0.00387148243499,-0.176895086527,-0.00350816268474,0.524317681789,-9.76851272583,0.127119079232
1560051886524862289,-0.0042312005023,-0.171432244481,-0.00176283356268,0.503799498081,-9.76817321777,0.167434990406
1560051886528776884,-0.00530362408608,-0.169287398458,-0.000103830800737,0.465336441994,-9.86779975891,0.18891967833
1560051886532691240,-0.00530362408608,-0.166641781954,-0.00176283356268,0.443848669529,-9.84717082977,0.268974870443
1560051886536605358,-0.00516283959843,-0.163910629124,-0.00176283356268,0.483579963446,-9.86701011658,0.288152903318
1560051886540520668,-0.00355829484761,-0.161178349893,-0.000635097596663,0.501205146313,-9.74707698822,0.306852221489
1560051886544434071,-0.0039263896582,-0.156333911079,-1.75042805495e-05,0.480367273092,-9.72677135468,0.347036212683
1560051886548348427,-0.00530362408608,-0.150871169532,-1.75042805495e-05,0.379906982183,-9.65680599213,0.348798155785
1560051886552262783,-0.00530362408608,-0.146002977382,-0.00176283356268,0.399935096502,-9.66680526733,0.348419398069
1560051886556177139,-0.00530362408608,-0.144852787256,-0.00176283356268,0.420123040676,-9.68678855896,0.348106592894
1560051886560090542,-0.00530362408608,-0.144852787256,-1.75042805495e-05,0.420762419701,-9.72671794891,0.348370432854
1560051886564004898,-0.00355829484761,-0.142921244269,0.00172782491427,0.401858508587,-9.76679039001,0.329143434763
1560051886567919254,-0.00355829484761,-0.134725090906,0.000679030006868,0.402492642403,-9.82652282715,0.349474787712
1560051886571833611,-0.005592987113,-0.128855469619,-1.75042805495e-05,0.441589772701,-9.78662967682,0.348321467638
1560051886575745821,-0.00704895332456,-0.127399504185,-1.75042805495e-05,0.401869028807,-9.72718524933,0.289008378983
1560051886579661131,-0.00704895332456,-0.129144832492,-1.75042805495e-05,0.341939270496,-9.72697067261,0.310278207064
1560051886583574533,-0.00554772784911,-0.127643607817,-1.75042805495e-05,0.302208006382,-9.7071313858,0.291100144386
1560051886587488651,-0.00704895332456,-0.120679914242,-1.75042805495e-05,0.283623754978,-9.76716899872,0.272005081177
1560051886591403246,-0.00877747674144,-0.116944317803,-1.75042805495e-05,0.324004948139,-9.78733158112,0.251311928034
1560051886595317602,-0.00782500655968,-0.114212908197,-1.75042805495e-05,0.345487415791,-9.82776355743,0.191324263811
1560051886599232912,-0.00704895332456,-0.113226197949,-1.75042805495e-05,0.364380836487,-9.82729625702,0.25068628788
1560051886603147268,-0.00704895332456,-0.110494764182,-1.75042805495e-05,0.364711076021,-9.8076543808,0.210683181882
1560051886607061625,-0.00530362408608,-0.107763082731,-1.75042805495e-05,0.325299441814,-9.80778026581,0.191637068987
1560051886610976934,-0.00387910667547,-0.106455542147,-0.0014420217268,0.305111497641,-9.78779792786,0.191949889064
1560051886614891291,-0.00355829484761,-0.106455542147,-0.00176283356268,0.304797083139,-9.74803066254,0.171750441194
1560051886618805647,-0.00521027574074,-0.106455542147,-0.000110852628229,0.304466873407,-9.76767158508,0.211753562093
1560051886622720003,-0.00355829484761,-0.10471021384,-1.75042805495e-05,0.345173001289,-9.78799629211,0.171124815941
1560051886626634359,-0.00342501175448,-0.102698312038,-1.75042805495e-05,0.383604466915,-9.80718708038,0.270045220852
1560051886630548477,-0.00181296560913,-0.0972348636864,-1.75042805495e-05,0.382965087891,-9.76725769043,0.269781380892
1560051886634462833,-0.00145251762249,-0.0935173394132,-0.00140238556401,0.382959842682,-9.78706169128,0.289848893881
1560051886638377428,-6.76363852108e-05,-0.0894007772436,-1.75042805495e-05,0.303004592657,-9.76694393158,0.301463723183
1560051886642292738,-0.00181296560913,-0.0872569158673,-1.75042805495e-05,0.302202731371,-9.72693443298,0.311167657375
1560051886646207094,-0.00181296560913,-0.0872569158673,-1.75042805495e-05,0.321426391602,-9.70682621002,0.330526590347
1560051886650120258,-0.00437263740344,-0.0881879020532,-0.00350816268474,0.361487835646,-9.70702266693,0.309701532125
1560051886654035568,-0.00524723721943,-0.085398813887,-0.00345177582184,0.380061596632,-9.68659210205,0.368931651115
1560051886657949924,-0.00355829484761,-0.0809785270037,-0.000720429038162,0.381015390158,-9.76628780365,0.389394938946
1560051886661864281,-0.00355829484761,-0.0799925628834,-1.75042805495e-05,0.3797313869,-9.7062330246,0.408934772015
1560051886665778875,-0.00355829484761,-0.0785302743316,-0.00128678925688,0.360827416182,-9.7463054657,0.389707744122
1560051886669693232,-0.00355829484761,-0.0780199654324,-0.00176283356268,0.281034678221,-9.72627067566,0.391354799271
1560051886673607349,-0.00355829484761,-0.0752885641427,-0.00176283356268,0.30058324337,-9.70632266998,0.390778124332
1560051886677521706,-0.00429571830334,-0.0700741075279,-0.000754927754728,0.321421086788,-9.7266292572,0.350594133139
1560051886681437016,-0.00530362408608,-0.0697826599544,-0.00176283356268,0.361482620239,-9.72682666779,0.329769074917
1560051886685350418,-0.00530362408608,-0.0698036253452,-0.000798567806433,0.3422537148,-9.76673793793,0.330477654934
1560051886689264536,-0.00530362408608,-0.0698036253452,-1.75042805495e-05,0.322233468294,-9.72703361511,0.300755143166
1560051886693179131,-0.00530362408608,-0.0698036253452,-1.75042805495e-05,0.263110846281,-9.74702548981,0.292253494263
1560051886697095394,-0.00530362408608,-0.067190957791,-0.000451174146364,0.242912352085,-9.76664829254,0.332701325417
1560051886701008797,-0.00530362408608,-0.0645676404238,-0.00176283356268,0.283136337996,-9.76692676544,0.30190846324
1560051886704923153,-0.0059636324161,-0.0669729767088,-1.75042805495e-05,0.303167074919,-9.7670249939,0.291495919228
1560051886708837509,-0.00704895332456,-0.0664118270822,-1.75042805495e-05,0.323360264301,-9.76720428467,0.271115601063
1560051886712751627,-0.00704895332456,-0.06542575021,-0.00176283356268,0.342583924532,-9.74709701538,0.290474534035
1560051886716666222,-0.00704895332456,-0.0626940500792,-0.00163457863043,0.323360264301,-9.76720428467,0.271115601063
1560051886720579624,-0.00704895332456,-0.0599632890277,-1.75042805495e-05,0.264725059271,-9.78743934631,0.232710540295
1560051886724494934,-0.00565854712317,-0.0586218023563,-1.75042805495e-05,0.264725059271,-9.78743934631,0.232710540295
1560051886728409290,-0.0057077235273,-0.0558409914374,-1.75042805495e-05,0.283948719501,-9.76733112335,0.252069473267
1560051886732323408,-0.00297607502537,-0.0558409914374,-0.00350816268474,0.324004948139,-9.78733158112,0.251311928034
1560051886736237764,-0.000244780890733,-0.0542728075428,-0.00350816268474,0.323685228825,-9.7673664093,0.251179993153
1560051886740152121,-0.00181296560913,-0.0515411243653,-0.00176283356268,0.34386792779,-9.80715179443,0.270934700966
1560051886744067669,-0.00181296560913,-0.0488596744835,-6.84020379806e-05,0.303486764431,-9.78699016571,0.291627854109
1560051886747983932,-0.00181296560913,-0.0488596744835,-0.00176283356268,0.282973855734,-9.76684570312,0.311876267195
1560051886751898289,-0.00355829484761,-0.0468347401513,-0.00148322797823,0.263425260782,-9.78679275513,0.312452912331
1560051886755812407,-0.00355829484761,-0.0441035718555,-1.75042805495e-05,0.282329201698,-9.74672031403,0.331679940224
1560051886759727955,-0.00305140382531,-0.043116795085,-1.75042805495e-05,0.322385430336,-9.76671981812,0.330922365189
1560051886763643265,-0.00181296560913,-0.0418783575296,-1.75042805495e-05,0.341284126043,-9.74645042419,0.370216906071
1560051886767557621,-0.00181296560913,-0.0376530079727,-1.75042805495e-05,0.341614335775,-9.72680950165,0.330213785172
1560051886771471024,-0.00181296560913,-0.0366423688829,-1.75042805495e-05,0.361477315426,-9.74662876129,0.349836587906
1560051886775386333,-0.00181296560913,-0.0358589417957,-0.000979406037832,0.320765972137,-9.74610900879,0.410532832146
1560051886779299498,-0.00181296560913,-0.0364404212539,-0.00330621496146,0.301227897406,-9.72644996643,0.370974451303
1560051886783213854,-0.00181296560913,-0.0337089726922,-0.00176283356268,0.301227897406,-9.72644996643,0.370974451303
1560051886787128448,-0.00181296560913,-0.0314063802361,-0.00133386442955,0.341284126043,-9.74645042419,0.370216906071
1560051886791042805,-0.000397838350538,-0.0299912552311,-1.75042805495e-05,0.340639472008,-9.72632408142,0.3900205791
1560051886794956923,-0.000723736648398,-0.0255142965586,-1.75042805495e-05,0.360188037157,-9.70637607574,0.389443904161
1560051886798871279,-0.00509703874749,-0.0260671044529,-0.0016595408908,0.36179703474,-9.76659297943,0.349968492985
1560051886802784681,-0.0061860188304,-0.0261703971773,-0.00176283356268,0.302684903145,-9.74697971344,0.301331788301
1560051886806699991,-0.00704895332456,-0.0243009829056,-0.00163874952385,0.302836865187,-9.78666687012,0.331499040127
1560051886810614347,-0.00593881896905,-0.0204594693115,-1.75042805495e-05,0.302522420883,-9.74689865112,0.311299592257
1560051886814528704,-0.00495232938605,-0.0170924551662,-0.000368798989372,0.341934025288,-9.74677371979,0.330345720053
1560051886818442106,-0.00355829484761,-0.0143617603647,-0.000426173296808,0.342583924532,-9.74709701538,0.290474534035
1560051886822357416,-0.00355829484761,-0.0133749763153,-1.75042805495e-05,0.342578649521,-9.76689910889,0.310542047024
1560051886826271772,-0.00512248762557,-0.0122077623382,-1.75042805495e-05,0.303324282169,-9.78690910339,0.301595658064
1560051886830186129,-0.0061090583227,-0.0112678673364,-1.75042805495e-05,0.362929075956,-9.78696250916,0.300261437893
1560051886834099293,-0.00704895332456,-0.012162502474,-1.75042805495e-05,0.303486764431,-9.78699016571,0.291627854109
1560051886838013649,-0.00601752420085,-0.00943100397604,-1.75042805495e-05,0.303324282169,-9.78690910339,0.301595658064
1560051886841927052,-0.00530362408608,-0.00669982017331,-1.75042805495e-05,0.322872847319,-9.76696205139,0.301018983126
1560051886845842600,-0.00530362408608,-0.00396765827664,-0.00127629125179,0.36212721467,-9.74695205688,0.309965372086
1560051886849756718,-0.00480438783903,-0.00173578679096,-0.00176283356268,0.342258960009,-9.74693489075,0.310410112143
1560051886853670120,-0.00355829484761,-0.00173578679096,-0.00027758135528,0.322710365057,-9.76688098907,0.310986787081
1560051886857584476,-0.00283247528199,-0.00246160630817,-0.00176283356268,0.282654136419,-9.74688148499,0.311744332314
1560051886861497879,-0.00181296560913,-0.00177005117263,-5.17686653632e-05,0.282654136419,-9.74688148499,0.311744332314
1560051886865411997,-0.00181296560913,-0.000783698192254,-0.00176283356268,0.282973855734,-9.76684570312,0.311876267195
1560051886869325399,-0.00355829484761,0.000201914149425,-0.00157046187376,0.242912352085,-9.76664829254,0.332701325417
1560051886873239756,-0.00355829484761,0.00175487168599,-1.75042805495e-05,0.301547586918,-9.74641418457,0.371106386185
1560051886877154112,-0.00355829484761,0.00175487168599,-1.75042805495e-05,0.302197486162,-9.74673748016,0.331235170364
1560051886881068707,-0.00496414419191,0.00175487168599,-1.75042805495e-05,0.262455672026,-9.76650428772,0.35219219327
1560051886884981871,-0.00530362408608,0.00175487168599,-1.75042805495e-05,0.222069248557,-9.76614570618,0.392952859402
1560051886888896227,-0.00530362408608,0.00338659570115,-1.75042805495e-05,0.241937488317,-9.76616287231,0.392508119345
1560051886892809629,-0.00443129240455,0.00350020104088,-1.75042805495e-05,0.242262452841,-9.76632499695,0.372572511435
1560051886896723986,-0.00169997134508,0.00338720676834,-1.75042805495e-05,0.241617828608,-9.74619865417,0.392376184464
1560051886900637150,-0.00116609752297,0.00175487168599,-1.75042805495e-05,0.222394198179,-9.76630783081,0.373017251492
1560051886904550552,-0.00389724342321,0.00175487168599,-1.75042805495e-05,0.242262452841,-9.76632499695,0.372572511435
1560051886908464909,-0.00662863103683,0.00307987872512,-1.75042805495e-05,0.183307558298,-9.76659584045,0.334035545588
1560051886912377119,-0.00473920360164,0.00524553004652,-1.75042805495e-05,0.203663244843,-9.76685523987,0.303687423468
1560051886916292429,-0.00355829484761,0.00524553004652,-1.75042805495e-05,0.202850878239,-9.76645088196,0.353526413441
1560051886920206070,-0.00434984136729,0.006990859285,-1.75042805495e-05,0.202211499214,-9.72652244568,0.353262543678
1560051886924119473,-0.00530362408608,0.00870457292057,-1.75042805495e-05,0.163758978248,-9.78654289246,0.334612190723
1560051886928033590,-0.00530362408608,0.00291881321395,-1.75042805495e-05,0.182662919164,-9.74646949768,0.353839218616
1560051886931947947,-0.00530362408608,9.54246752372e-06,-1.75042805495e-05,0.183307558298,-9.76659584045,0.334035545588
1560051886935862303,-0.00530362408608,9.54246752372e-06,-1.75042805495e-05,0.183307558298,-9.76659584045,0.334035545588
1560051886939775705,-0.00530362408608,9.54246752372e-06,-1.75042805495e-05,0.182987868786,-9.74663162231,0.333903610706
1560051886943689823,-0.00530362408608,9.54246752372e-06,-1.75042805495e-05,0.182668179274,-9.72666740417,0.333771705627
1560051886947604179,-0.00355829484761,9.54246752372e-06,-0.00105099114657,0.16408392787,-9.78670406342,0.314676612616
1560051886951517582,-0.00186055509851,9.54246752372e-06,-0.00171524407211,0.182987868786,-9.74663162231,0.333903610706
1560051886955432177,-0.00261956408074,9.54246752372e-06,-0.00176283356268,0.182982608676,-9.76643371582,0.353971123695
1560051886959346533,-0.00373766977432,9.54246752372e-06,-0.000196879211749,0.182013019919,-9.74614620209,0.393710404634
1560051886963260651,-0.00646895150088,9.54246752372e-06,-0.00176283356268,0.162144750357,-9.74612808228,0.394155144691
1560051886967174053,-0.00664326773462,9.54246752372e-06,-0.00176283356268,0.182332709432,-9.76611042023,0.393842339516
1560051886971088409,-0.00530362408608,-0.00138219467543,-0.00176283356268,0.162784129381,-9.78605747223,0.394418984652
1560051886975002766,-0.00355829484761,-0.00474724058738,-1.75042805495e-05,0.161494851112,-9.74580478668,0.434026330709
1560051886978916883,-0.00355829484761,-0.0102098432763,-1.75042805495e-05,0.181363105774,-9.74582290649,0.433581590652
1560051886982831240,-0.00530362408608,-0.011348159564,-1.75042805495e-05,0.181043416262,-9.72585868835,0.433449685574
1560051886986744881,-0.00540346169339,-0.00687193701549,-0.000117341890351,0.181682795286,-9.76578712463,0.433713525534
1560051886990659237,-0.00596296685796,-0.00522644538432,-0.00176283356268,0.180713221431,-9.74550056458,0.473452746868
1560051886994573593,-0.00530362408608,-0.0069717746228,-1.75042805495e-05,0.181688070297,-9.74598503113,0.413645982742
1560051886998486757,-0.00530362408608,-0.0069717746228,-0.00133003588615,0.181682795286,-9.76578712463,0.433713525534
1560051887002401114,-0.00411168411294,-0.00927049312661,-0.0012094442835,0.20155107975,-9.76580429077,0.433268785477
1560051887006314516,-0.00530362408608,-0.0120014114585,-1.75042805495e-05,0.200901180506,-9.76548194885,0.473139941692
1560051887010229826,-0.00530362408608,-0.0122077623382,-0.00079773589066,0.201226130128,-9.76564311981,0.453204363585
1560051887014143944,-0.00530362408608,-0.0104624330997,-1.75042805495e-05,0.221094399691,-9.76566123962,0.452759623528
1560051887018058538,-0.00530362408608,-0.0114701277496,-1.75042805495e-05,0.220455020666,-9.72573280334,0.452495783567
1560051887021972895,-0.00530362408608,-0.0119594989964,-1.75042805495e-05,0.220130071044,-9.72557163239,0.472431361675
1560051887025886297,-0.00530362408608,-0.0104624330997,-1.75042805495e-05,0.221739023924,-9.7857875824,0.432955950499
1560051887029799461,-0.00577773156335,-0.0122077623382,-0.000491611769671,0.240318030119,-9.74555301666,0.472118556499
1560051887033713818,-0.00704895332456,-0.0122077623382,-0.00176283356268,0.240962654352,-9.76567840576,0.452314913273
1560051887037627220,-0.00634835990124,-0.00976183967643,-1.75042805495e-05,0.299597889185,-9.74544429779,0.490719914436
1560051887041541576,-0.00530362408608,-0.00703034651677,-1.75042805495e-05,0.239987790585,-9.76519393921,0.512121677399
1560051887045455694,-0.00623087164311,-0.0069717746228,-0.000944751860775,0.240318030119,-9.74555301666,0.472118556499
1560051887049369097,-0.00721619763484,-0.00713901893308,-1.75042805495e-05,0.28069922328,-9.76571464539,0.451425433159
1560051887053283453,-0.00879428256303,-0.00987106104122,-1.75042805495e-05,0.28102940321,-9.74607372284,0.41142231226
1560051887057198048,-0.00839942408024,-0.00871710386127,-1.75042805495e-05,0.319785833359,-9.76542663574,0.490407109261
1560051887061112404,-0.00704895332456,-0.0073362095613,-1.75042805495e-05,0.30057272315,-9.74592876434,0.430913150311
1560051887065026522,-0.00468174207406,-0.00460456328934,-1.75042805495e-05,0.301212102175,-9.7858581543,0.431177020073
1560051887068940878,-0.00355829484761,-0.00348111591302,-1.75042805495e-05,0.301526546478,-9.82562637329,0.451376438141
1560051887072856188,-0.00615325160342,-0.00088615926388,-1.75042805495e-05,0.321080386639,-9.78587627411,0.430732280016
1560051887076769590,-0.00704895332456,9.54246752372e-06,-0.00167284786795,0.28102940321,-9.74607372284,0.41142231226
1560051887080683947,-0.0059730357047,9.54246752372e-06,-1.75042805495e-05,0.261150628328,-9.78566169739,0.452002078295
1560051887084598303,-0.00530362408608,9.54246752372e-06,-1.75042805495e-05,0.281983196735,-9.82577037811,0.43188560009
1560051887088512659,-0.00530362408608,9.54246752372e-06,-1.75042805495e-05,0.280379503965,-9.74575042725,0.451293498278
1560051887092427015,-0.00355829484761,0.00458809874962,-0.000561453184808,0.321085631847,-9.76607322693,0.410664737225
1560051887096342325,-0.00355829484761,0.006990859285,-0.00176283356268,0.360177516937,-9.7459821701,0.429578959942
1560051887100256681,-0.00278667785985,0.00621924229724,-0.000991216555618,0.32011076808,-9.76558876038,0.470471531153
1560051887104170799,-0.00180065110211,0.00175487168599,-1.75042805495e-05,0.260181039572,-9.76537322998,0.491741329432
1560051887108085394,-6.76363852108e-05,0.00175487168599,-1.75042805495e-05,0.281343817711,-9.78584098816,0.431621730328
1560051887112000704,-0.00205348255262,0.00374071795228,-1.75042805495e-05,0.299922823906,-9.74560642242,0.470784336329
1560051887115915060,-0.00601130690396,0.00769854210288,-1.75042805495e-05,0.319785833359,-9.76542663574,0.490407109261
1560051887119829416,-0.00658171309904,0.0109487579875,-0.00176283356268,0.340623706579,-9.78573322296,0.450223118067
1560051887123743534,-0.00530362408608,0.0136799293596,-0.00176283356268,0.260505974293,-9.76553535461,0.471805751324
1560051887127658844,-0.00355829484761,0.015717504546,-1.75042805495e-05,0.259856075048,-9.76521205902,0.511676907539
1560051887131573439,-0.00355829484761,0.015717504546,-1.75042805495e-05,0.25986135006,-9.74540901184,0.49160939455
1560051887135487795,-0.00181296560913,0.0139721762389,-1.75042805495e-05,0.259866595268,-9.72560691833,0.471541881561
1560051887139402151,-0.00197620046102,0.0141354110037,-0.000180739136519,0.258897006512,-9.70531845093,0.511281132698
1560051887143316507,-0.00355829484761,0.015717504546,-0.00176283356268,0.240312755108,-9.76535511017,0.492186069489
1560051887147230625,-0.00394803158339,0.0161072414898,-1.75042805495e-05,0.260186284781,-9.74557113647,0.471673816442
1560051887151144981,-0.00530362408608,0.0188392643425,-1.75042805495e-05,0.239662855864,-9.76503181458,0.532057285309
1560051887155059576,-0.0046864609966,0.0192081648856,0.00111066184023,0.239993095398,-9.74539089203,0.492054134607
1560051887158973932,-0.00355829484761,0.0192081648856,-1.75042805495e-05,0.220124810934,-9.74537372589,0.492498874664
1560051887162889242,-0.00440309881259,0.021798296707,-1.75042805495e-05,0.200901180506,-9.76548194885,0.473139941692
1560051887166803360,-0.00530362408608,0.0242727466851,-1.75042805495e-05,0.200906440616,-9.74567890167,0.453072428703
1560051887170718670,-0.00423094432743,0.0188081336755,-1.75042805495e-05,0.221089139581,-9.78546524048,0.472827136517
1560051887174633026,-0.00324475766527,0.0174628347158,-1.75042805495e-05,0.241282373667,-9.78564357758,0.452446818352
1560051887178547621,-0.00311281024106,0.0187626800414,-1.75042805495e-05,0.221094399691,-9.76566123962,0.452759623528
1560051887182462931,-0.00355829484761,0.0186665336234,-1.75042805495e-05,0.181363105774,-9.74582290649,0.433581590652
1560051887186377287,-0.00508614433183,0.0159349844163,-1.75042805495e-05,0.181688070297,-9.74598503113,0.413645982742
1560051887190291405,-0.00530362408608,0.0164858295514,-0.000785828895153,0.181363105774,-9.74582290649,0.433581590652
1560051887194205761,-0.00529463841887,0.0174718203878,-1.75042805495e-05,0.201226130128,-9.76564311981,0.453204363585
1560051887198120117,-0.00256312636998,0.0192081648856,-1.75042805495e-05,0.221419334412,-9.76582241058,0.43282404542
1560051887202033520,-0.002048605235,0.0172271949642,-1.75042805495e-05,0.181357860565,-9.76562595367,0.453649103642
1560051887205948114,-0.00355829484761,0.015717504546,-0.00123955067399,0.201226130128,-9.76564311981,0.453204363585
1560051887209862232,-0.00355829484761,0.0152547232645,-0.00130005202264,0.202195718884,-9.78593158722,0.413465082645
1560051887213776588,-0.00355829484761,0.0125231988415,-1.75042805495e-05,0.181032910943,-9.76546478271,0.473584681749
1560051887217690945,-0.0028687490532,0.0104815177619,-1.75042805495e-05,0.200901180506,-9.76548194885,0.473139941692
1560051887221605301,-0.00348875448334,0.0121573066362,-1.75042805495e-05,0.180702701211,-9.78510665894,0.513587832451
1560051887225519419,-0.00355829484761,0.0122268470004,-1.75042805495e-05,0.200906440616,-9.74567890167,0.453072428703
1560051887229433775,-0.00355829484761,0.010166666184,-1.75042805495e-05,0.180707961321,-9.76530265808,0.49352028966
1560051887233348370,-0.00241442435737,0.00584698879476,-1.75042805495e-05,0.180713221431,-9.74550056458,0.473452746868
1560051887237261772,-0.00219702753614,0.00737492121201,-1.75042805495e-05,0.200906440616,-9.74567890167,0.453072428703
1560051887241177082,-0.00492932794356,0.0114782547154,-0.0013885374108,0.180713221431,-9.74550056458,0.473452746868
1560051887245091200,-0.00469211830515,0.0116153412195,-0.00115132776645,0.160520002246,-9.74532032013,0.493833094835
1560051887249005556,-0.00355829484761,0.00728538119054,-1.75042805495e-05,0.180718481541,-9.7256975174,0.453385263681
1560051887252919912,-0.00530362408608,0.00782966207165,-0.000856307088183,0.199936851859,-9.72539138794,0.492811709642
1560051887256834269,-0.00514486654631,0.00873618852347,-0.00176283356268,0.199931591749,-9.74519443512,0.512879252434
1560051887260748863,-0.00181296560913,0.00766982046932,-0.00176283356268,0.200581490993,-9.74551773071,0.473008036613
1560051887264662027,-0.00242530306129,0.00668469055892,-0.00176283356268,0.180388271809,-9.74533843994,0.493388354778
1560051887268576384,-0.00530362408608,0.00524553004652,-0.000470594504234,0.180713221431,-9.74550056458,0.473452746868
1560051887272490740,-0.00651569056516,0.00471226735827,-1.75042805495e-05,0.199926331639,-9.76499652863,0.532946705818
1560051887276404142,-0.00530362408608,0.000462805538244,-1.75042805495e-05,0.200901180506,-9.76548194885,0.473139941692
1560051887280318260,-0.00355829484761,9.54246752372e-06,-0.00100349547436,0.200906440616,-9.74567890167,0.453072428703
1560051887284231663,-0.00355829484761,9.54246752372e-06,-1.75042805495e-05,0.201220870018,-9.78544712067,0.473271876574
1560051887288146973,-0.00355829484761,0.00198191638407,-1.75042805495e-05,0.181352600455,-9.78542995453,0.473716616631
1560051887292061567,-0.00333083149338,0.00350020104088,-1.75042805495e-05,0.181038171053,-9.74566173553,0.453517198563
1560051887295975924,-0.00181296560913,0.00228663732387,-1.75042805495e-05,0.201226130128,-9.76564311981,0.453204363585
1560051887299890041,-0.00181296560913,9.54246752372e-06,-1.75042805495e-05,0.201220870018,-9.78544712067,0.473271876574
1560051887303803444,-0.00181296560913,9.54246752372e-06,-1.75042805495e-05,0.200581490993,-9.74551773071,0.473008036613
1560051887307717800,-0.00355829484761,-0.000671017667476,-0.00069806442477,0.200251281261,-9.76515865326,0.513011157513
1560051887311632156,-0.00355829484761,-0.00173578679096,-0.00176283356268,0.200576230884,-9.76531982422,0.493075549603
1560051887315546274,-0.00181296560913,-0.00173578679096,-0.00176283356268,0.220124810934,-9.74537372589,0.492498874664
1560051887319460630,-0.00181296560913,9.54246752372e-06,-0.000165929360755,0.199926331639,-9.76499652863,0.532946705818
1560051887323375225,-0.00181296560913,9.54246752372e-06,-0.000628003611766,0.200251281261,-9.76515865326,0.513011157513
1560051887327289581,-0.00393404008852,0.00175487168599,-1.75042805495e-05,0.220444500446,-9.76533794403,0.492630809546
1560051887331203938,-0.00530362408608,0.00175487168599,-1.75042805495e-05,0.220119550824,-9.76517677307,0.512566447258
1560051887335118055,-0.00530362408608,0.00350020104088,-0.000620460200854,0.23934841156,-9.72526550293,0.511857867241
1560051887339032412,-0.00371454076967,0.00191111761848,-0.00176283356268,0.259216696024,-9.72528362274,0.511413097382
1560051887342946768,-0.00530362408608,9.54246752372e-06,-0.000847234614462,0.23901823163,-9.74490642548,0.551860928535
1560051887346861124,-0.00697856778,9.54246752372e-06,-0.00176283356268,0.219794601202,-9.76501464844,0.532501995564
1560051887350775719,-0.00424691213511,9.54246752372e-06,-0.000706121585281,0.220444500446,-9.76533794403,0.492630809546
1560051887354689837,-0.00326044527905,0.000307392032664,-1.75042805495e-05,0.239668130875,-9.74522972107,0.511989712715
1560051887358604193,-0.00309688794916,0.00175487168599,-1.75042805495e-05,0.259531140327,-9.76504993439,0.53161251545
1560051887362518549,-0.00530362408608,0.00175487168599,-1.75042805495e-05,0.259216696024,-9.72528362274,0.511413097382
1560051887366432905,-0.00530362408608,0.00175487168599,-0.00152854737675,0.239993095398,-9.74539089203,0.492054134607
1560051887370346308,-0.00355829484761,9.54246752372e-06,-0.0010118876,0.239343196154,-9.74506759644,0.531925320625
1560051887374260426,-0.00355829484761,9.54246752372e-06,-1.75042805495e-05,0.240632474422,-9.78532028198,0.49231800437
1560051887378175020,-0.00355829484761,9.54246752372e-06,-1.75042805495e-05,0.220124810934,-9.74537372589,0.492498874664
1560051887382089376,-0.00530362408608,0.00197386932719,-1.75042805495e-05,0.219794601202,-9.76501464844,0.532501995564
1560051887386003733,-0.00409837713612,0.00350020104088,-1.75042805495e-05,0.200256541371,-9.74535560608,0.492943614721
1560051887389917850,-0.00355829484761,0.00350020104088,-0.000463654773659,0.239668130875,-9.74522972107,0.511989712715
1560051887393831253,-0.00355829484761,0.00493196307503,-0.00176283356268,0.240637689829,-9.7655172348,0.472250461578
1560051887397745609,-0.00355829484761,0.00524553004652,-0.00176283356268,0.221089139581,-9.78546524048,0.472827136517
1560051887401659012,-0.00355829484761,0.00358739239539,-0.00176283356268,0.200895920396,-9.78528499603,0.493207454681
1560051887405573130,-0.0044569202319,9.54246752372e-06,-1.75042805495e-05,0.220769450068,-9.76550006866,0.472695201635
1560051887409487486,-0.00704895332456,0.00357900178542,-9.63050375732e-05,0.220764189959,-9.78530311584,0.492762714624
1560051887415341616,-0.00704895332456,0.00637159183905,-0.000636771741983,0.240318030119,-9.74555301666,0.472118556499
1560051887419257641,-0.00668141902981,0.00662332499025,-1.75042805495e-05,0.240307509899,-9.78515911102,0.512253642082
1560051887423172474,-0.00530362408608,0.00524553004652,-1.75042805495e-05,0.220769450068,-9.76550006866,0.472695201635
1560051887427086353,-0.00355829484761,0.00409395185852,-1.75042805495e-05,0.200576230884,-9.76531982422,0.493075549603
1560051887431002140,-0.00355829484761,0.00524553004652,-1.75042805495e-05,0.201226130128,-9.76564311981,0.453204363585
1560051887434916973,-0.00181296560913,0.00360198669185,-0.000839276005846,0.180713221431,-9.74550056458,0.473452746868
1560051887438832045,-0.00355829484761,0.00524553004652,-1.75042805495e-05,0.220124810934,-9.74537372589,0.492498874664
1560051887442746878,-0.00355829484761,0.00524553004652,-1.75042805495e-05,0.220124810934,-9.74537372589,0.492498874664
1560051887446661949,-0.00355829484761,0.00524553004652,-1.75042805495e-05,0.220124810934,-9.74537372589,0.492498874664
1560051887450576544,-0.00355829484761,0.00524553004652,-1.75042805495e-05,0.220124810934,-9.74537372589,0.492498874664
1560051887454491377,-0.00355829484761,0.00350020104088,-0.00176283356268,0.220124810934,-9.74537372589,0.492498874664
1560051887458406448,-0.00355829484761,0.00350020104088,-0.00176283356268,0.220124810934,-9.74537372589,0.492498874664
1560051887462321281,-0.00530362408608,0.00175487168599,-0.000761201853413,0.200581490993,-9.74551773071,0.473008036613
1560051887466236353,-0.00530362408608,0.00175487168599,-0.00176283356268,0.220764189959,-9.78530311584,0.492762714624
1560051887470151186,-0.0043326661298,0.00175487168599,-0.00253720479322,0.220124810934,-9.74537372589,0.492498874664
1560051887474067211,-0.00530362408608,0.00175487168599,-0.00155011448467,0.221094399691,-9.76566123962,0.452759623528
1560051887477982044,-0.00530362408608,0.00295352725333,-1.75042805495e-05,0.220119550824,-9.76517677307,0.512566447258
1560051887481896639,-0.00530362408608,0.00524553004652,-1.75042805495e-05,0.221094399691,-9.76566123962,0.452759623528
1560051887485811710,-0.00530362408608,0.00524553004652,-1.75042805495e-05,0.201220870018,-9.78544712067,0.473271876574
1560051887489726543,-0.00530362408608,0.00283383297167,-0.002429201543,0.200901180506,-9.76548194885,0.473139941692
1560051887493641376,-0.0036511353474,0.000102382966253,-0.00350816268474,0.220769450068,-9.76550006866,0.472695201635
1560051887497556448,-0.0026646744744,9.54246752372e-06,-1.75042805495e-05,0.200901180506,-9.76548194885,0.473139941692
1560051887501472235,-0.00181296560913,0.000144745682076,-0.000152707500033,0.201226130128,-9.76564311981,0.453204363585
1560051887505387306,-0.00293430917908,0.00175487168599,-0.00176283356268,0.20155633986,-9.74600219727,0.413201242685
1560051887509301901,-0.00355829484761,0.00350020104088,-0.00176283356268,0.181032910943,-9.76546478271,0.473584681749
1560051887513217926,-0.00220895052954,0.00484954517894,-0.000413489210858,0.240637689829,-9.7655172348,0.472250461578
1560051887517132759,-0.00181296560913,0.00291038280386,-1.75042805495e-05,0.221414089203,-9.78562641144,0.452891558409
1560051887521047592,-0.00338881765941,0.000179019653774,-1.75042805495e-05,0.200906440616,-9.74567890167,0.453072428703
1560051887524961710,-0.00355829484761,9.54246752372e-06,-1.75042805495e-05,0.180718481541,-9.7256975174,0.453385263681
1560051887528876543,-0.00355829484761,9.54246752372e-06,-1.75042805495e-05,0.220769450068,-9.76550006866,0.472695201635
1560051887532792568,-0.00251432572389,9.54246752372e-06,-1.75042805495e-05,0.201231390238,-9.74584007263,0.433136850595
1560051887536707163,-0.000352703837136,9.54246752372e-06,-1.75042805495e-05,0.181357860565,-9.76562595367,0.453649103642
1560051887540622950,-0.00181296560913,9.54246752372e-06,-1.75042805495e-05,0.221094399691,-9.76566123962,0.452759623528
1560051887544538021,-0.00530362408608,9.54246752372e-06,-1.75042805495e-05,0.201220870018,-9.78544712067,0.473271876574
1560051887548453808,-0.00530362408608,9.54246752372e-06,-1.75042805495e-05,0.20155107975,-9.76580429077,0.433268785477
1560051887552368879,-0.00530362408608,9.54246752372e-06,-0.000757780495255,0.221419334412,-9.76582241058,0.43282404542
1560051887556284666,-0.00530362408608,9.54246752372e-06,-3.5804340141e-05,0.201226130128,-9.76564311981,0.453204363585
1560051887560199738,-0.00452659191025,-0.000958754606219,-0.000985801367412,0.220769450068,-9.76550006866,0.472695201635
1560051887564114571,-0.00509439720088,-0.00173578679096,-0.00176283356268,0.220449760556,-9.74553585052,0.472563266754
1560051887568029404,-0.00355829484761,-0.00173578679096,-0.000567671366072,0.221419334412,-9.76582241058,0.43282404542
1560051887571945429,-0.0039948771618,9.54246752372e-06,-1.75042805495e-05,0.221414089203,-9.78562641144,0.452891558409
1560051887575859070,-0.00672600951836,-0.00141284298106,-1.75042805495e-05,0.200581490993,-9.74551773071,0.473008036613
1560051887579775095,-0.00704895332456,-0.00348111591302,-1.75042805495e-05,0.221099644899,-9.74585819244,0.432692110538
1560051887583689928,-0.00704895332456,-0.00183141918976,-1.75042805495e-05,0.20155107975,-9.76580429077,0.433268785477
1560051887587604761,-0.00530362408608,-0.000844993713037,-1.75042805495e-05,0.241287589073,-9.76583957672,0.432379305363
1560051887591520786,-0.00329308552611,9.54246752372e-06,-0.00189543821514,0.240637689829,-9.7655172348,0.472250461578
1560051887595434666,-6.76363852108e-05,9.54246752372e-06,-0.0023901210607,0.220449760556,-9.74553585052,0.472563266754
1560051887599350691,-0.000427380138931,9.54246752372e-06,-0.00140308979696,0.241607308388,-9.78580474854,0.432511210442
1560051887603265285,-0.00315864900881,9.54246752372e-06,-1.75042805495e-05,0.221414089203,-9.78562641144,0.452891558409
1560051887607180357,-0.00530362408608,9.54246752372e-06,-1.75042805495e-05,0.220124810934,-9.74537372589,0.492498874664
1560051887611095190,-0.00530362408608,9.54246752372e-06,-1.75042805495e-05,0.239998310804,-9.72558879852,0.471986621618
1560051887615010977,-0.00530362408608,9.54246752372e-06,-1.75042805495e-05,0.200901180506,-9.76548194885,0.473139941692
1560051887618926048,-0.00704895332456,-0.00173578679096,-7.27372797807e-05,0.201231390238,-9.74584007263,0.433136850595
1560051887622841835,-0.00600697817189,-0.00173578679096,-0.000720858383947,0.241607308388,-9.78580474854,0.432511210442
1560051887626757860,-0.00327455838242,9.54246752372e-06,-1.75042805495e-05,0.221099644899,-9.74585819244,0.432692110538
1560051887630673647,-0.00308344525905,9.54246752372e-06,-1.75042805495e-05,0.221094399691,-9.76566123962,0.452759623528
1560051887634588718,-0.00406946331325,9.54246752372e-06,-1.75042805495e-05,0.240323275328,-9.72574996948,0.45205104351
1560051887638503313,-0.00380586881587,-0.00148821281986,-1.75042805495e-05,0.240637689829,-9.7655172348,0.472250461578
1560051887642419338,-0.00355829484761,-0.00099655901006,-1.75042805495e-05,0.220449760556,-9.74553585052,0.472563266754
1560051887646334171,-0.00355829484761,9.54246752372e-06,-1.75042805495e-05,0.240642994642,-9.74571418762,0.452182978392
1560051887650249958,-0.00452529720271,-0.00173578679096,-1.75042805495e-05,0.219799861312,-9.74521255493,0.512434482574
1560051887654164076,-0.00335115148711,0.000216685825648,-1.75042805495e-05,0.220769450068,-9.76550006866,0.472695201635
1560051887658079863,-0.000619090565034,0.00294874681968,-0.00121137936447,0.241287589073,-9.76583957672,0.432379305363
1560051887661994934,-0.000937806093809,0.00524553004652,-0.00350816268474,0.240312755108,-9.76535511017,0.492186069489
1560051887665910721,-0.00498018061965,0.00524553004652,-0.00208627700754,0.241282373667,-9.78564357758,0.452446818352
1560051887669825554,-0.00638642688688,0.00350020104088,-1.75042805495e-05,0.220449760556,-9.74553585052,0.472563266754
1560051887673741341,-0.00365458289034,0.00185115973515,-1.75042805495e-05,0.220769450068,-9.76550006866,0.472695201635
1560051887677657127,-0.00270359231038,0.00175487168599,-1.75042805495e-05,0.239998310804,-9.72558879852,0.471986621618
1560051887681573153,-0.00355829484761,0.00162243241653,-1.75042805495e-05,0.240637689829,-9.7655172348,0.472250461578
1560051887685487986,-0.00355829484761,9.54246752372e-06,-1.75042805495e-05,0.241292893887,-9.74603748322,0.412311792374
1560051887689404011,-0.00181296560913,9.54246752372e-06,-1.75042805495e-05,0.240642994642,-9.74571418762,0.452182978392
1560051887693319798,-0.00316029894636,9.54246752372e-06,-1.75042805495e-05,0.240318030119,-9.74555301666,0.472118556499
1560051887697234869,-0.00530362408608,9.54246752372e-06,-1.75042805495e-05,0.221419334412,-9.76582241058,0.43282404542
1560051887701150656,-0.00530362408608,9.54246752372e-06,-0.00159262667332,0.201231390238,-9.74584007263,0.433136850595
1560051887705066681,-0.00448702960184,9.54246752372e-06,-0.000946239058012,0.240642994642,-9.74571418762,0.452182978392
1560051887708982468,-0.00181296560913,9.54246752372e-06,-1.75042805495e-05,0.200906440616,-9.74567890167,0.453072428703
1560051887712897539,-0.00181296560913,9.54246752372e-06,-1.75042805495e-05,0.221414089203,-9.78562641144,0.452891558409
1560051887716813326,-0.00209897363779,0.00204087973372,-0.000303512316359,0.220769450068,-9.76550006866,0.472695201635
1560051887720727921,-0.00355829484761,0.00350020104088,-0.000490841831541,0.20154581964,-9.78560829163,0.453336298466
1560051887724643946,-0.00530362408608,0.00524553004652,-1.75042805495e-05,0.20155107975,-9.76580429077,0.433268785477
1560051887728558779,-0.00530362408608,0.00374577842901,-1.75042805495e-05,0.220124810934,-9.74537372589,0.492498874664
1560051887732473850,-0.00456306551469,0.00101431312309,-1.75042805495e-05,0.199936851859,-9.72539138794,0.492811709642
1560051887736388683,-0.00355829484761,0.00173690035178,-1.75042805495e-05,0.220774710178,-9.74569702148,0.452627718449
1560051887740304708,-0.00258962912987,0.00175487168599,-1.75042805495e-05,0.221094399691,-9.76566123962,0.452759623528
1560051887744219542,-0.00202227230304,0.00350020104088,-1.75042805495e-05,0.201226130128,-9.76564311981,0.453204363585
1560051887748134375,-0.00475366677324,0.00469557280704,-1.75042805495e-05,0.220444500446,-9.76533794403,0.492630809546
1560051887752050400,-0.00530362408608,0.0048082827401,-1.75042805495e-05,0.220444500446,-9.76533794403,0.492630809546
1560051887755964994,-0.00388045084702,0.00350020104088,-1.75042805495e-05,0.200895920396,-9.78528499603,0.493207454681
1560051887759881020,-0.00289335975081,0.00175487168599,-1.75042805495e-05,0.180388271809,-9.74533843994,0.493388354778
1560051887763797760,-0.00346545434781,0.000102382966253,-1.75042805495e-05,0.200581490993,-9.74551773071,0.473008036613
1560051887767712831,-0.00445191522082,0.000903162830489,-1.75042805495e-05,0.200256541371,-9.74535560608,0.492943614721
1560051887771628618,-0.00530362408608,0.00350020104088,-0.000152105492594,0.220449760556,-9.74553585052,0.472563266754
1560051887775544643,-0.00530362408608,0.00350020104088,-0.00176283356268,0.200581490993,-9.74551773071,0.473008036613
1560051887779459476,-0.00530362408608,0.00350020104088,-0.00176283356268,0.220769450068,-9.76550006866,0.472695201635
1560051887783375502,-0.00530362408608,0.00350020104088,-0.000413338221686,0.200581490993,-9.74551773071,0.473008036613
1560051887787291288,-0.00471259069207,0.00116383829875,-1.75042805495e-05,0.200901180506,-9.76548194885,0.473139941692
1560051887791207075,-0.00355829484761,9.54246752372e-06,-1.75042805495e-05,0.240962654352,-9.76567840576,0.452314913273
1560051887795123100,-0.00355829484761,9.54246752372e-06,-0.00176283356268,0.221099644899,-9.74585819244,0.432692110538
1560051887799037933,-0.00355829484761,0.00181557101819,-0.00344746336064,0.220449760556,-9.74553585052,0.472563266754
1560051887802953959,-0.00355829484761,0.00454756523034,-0.00176283356268,0.200901180506,-9.76548194885,0.473139941692
1560051887806868553,-0.00355829484761,0.00495769229492,-0.00176283356268,0.200901180506,-9.76548194885,0.473139941692
1560051887810784578,-0.00355829484761,0.00222489637456,-0.00176283356268,0.199926331639,-9.76499652863,0.532946705818
1560051887814699411,-0.00407412260166,9.54246752372e-06,-0.00124700579572,0.240318030119,-9.74555301666,0.472118556499
1560051887818615437,-0.00530362408608,0.00151238193455,-1.75042805495e-05,0.220774710178,-9.74569702148,0.452627718449
1560051887822530270,-0.00530362408608,0.00350020104088,-0.000761273592674,0.200901180506,-9.76548194885,0.473139941692
1560051887826446295,-0.00530362408608,0.00350020104088,-0.00176283356268,0.220764189959,-9.78530311584,0.492762714624
1560051887830362082,-0.00161430671078,0.000782877624665,-0.00176283356268,0.200581490993,-9.74551773071,0.473008036613
1560051887834276915,-6.76363852108e-05,9.54246752372e-06,-1.75042805495e-05,0.201226130128,-9.76564311981,0.453204363585
1560051887838192940,-0.00126773768655,0.00120964376511,-1.75042805495e-05,0.219810381532,-9.70560646057,0.472299426794
1560051887842108727,-6.76363852108e-05,0.00131346444551,-0.000458911537127,0.220119550824,-9.76517677307,0.512566447258
1560051887846023798,-0.00149530065606,-0.00141812183159,-0.00176283356268,0.220449760556,-9.74553585052,0.472563266754
1560051887849939346,-0.00355829484761,-0.00348111591302,-1.75042805495e-05,0.220444500446,-9.76533794403,0.492630809546
1560051887853855371,-0.00355829484761,-0.0018251246509,-1.75042805495e-05,0.220769450068,-9.76550006866,0.472695201635
1560051887857770205,-0.00355829484761,0.000906489605661,-1.75042805495e-05,0.200576230884,-9.76531982422,0.493075549603
1560051887861685276,-0.00530362408608,9.54246752372e-06,-0.0016247908188,0.21947491169,-9.7450504303,0.532370090485
1560051887865601063,-0.00530362408608,9.54246752372e-06,-1.75042805495e-05,0.200901180506,-9.76548194885,0.473139941692
1560051887869515896,-0.00493825312474,-0.00210115772793,-1.75042805495e-05,0.220769450068,-9.76550006866,0.472695201635
1560051887873431921,-0.00220597239195,-0.00348111591302,-1.75042805495e-05,0.199936851859,-9.72539138794,0.492811709642
1560051887877346754,-6.76363852108e-05,-0.00288792025574,-1.75042805495e-05,0.220449760556,-9.74553585052,0.472563266754
1560051887881261826,-0.00164708469437,-0.00173578679096,-1.75042805495e-05,0.220124810934,-9.74537372589,0.492498874664
1560051887885177374,-0.00437923503261,-0.000914846596545,-1.75042805495e-05,0.200581490993,-9.74551773071,0.473008036613
1560051887889093399,-0.00704895332456,9.54246752372e-06,-1.75042805495e-05,0.220774710178,-9.74569702148,0.452627718449
1560051887893008232,-0.00704895332456,9.54246752372e-06,-1.75042805495e-05,0.220444500446,-9.76533794403,0.492630809546
1560051887896924257,-0.00530362408608,9.54246752372e-06,-1.75042805495e-05,0.220449760556,-9.74553585052,0.472563266754
1560051887900839090,-0.00530362408608,9.54246752372e-06,-1.75042805495e-05,0.240642994642,-9.74571418762,0.452182978392
1560051887904754877,-0.00530362408608,0.000527601044783,-0.000535562876706,0.220774710178,-9.74569702148,0.452627718449
1560051887908669949,-0.00379945431029,0.000250701927439,-0.00326700323814,0.260186284781,-9.74557113647,0.471673816442
1560051887912585735,-0.00181296560913,9.54246752372e-06,-0.00276239795214,0.239993095398,-9.74539089203,0.492054134607
1560051887916501760,-0.00181296560913,9.54246752372e-06,-2.99832253534e-05,0.220769450068,-9.76550006866,0.472695201635
1560051887920416594,-0.00355829484761,0.00175487168599,-1.75042805495e-05,0.219799861312,-9.74521255493,0.512434482574
1560051887924332619,-0.00334274785685,0.00350020104088,-1.75042805495e-05,0.201220870018,-9.78544712067,0.473271876574
1560051887928248405,-0.00301522907618,0.00350020104088,-0.00121976777767,0.239987790585,-9.76519393921,0.512121677399
1560051887932163239,-0.00355829484761,0.00305746296684,-0.00176283356268,0.240637689829,-9.7655172348,0.472250461578
1560051887936079025,-0.00498778819475,0.00175487168599,-0.000333340179783,0.220769450068,-9.76550006866,0.472695201635
1560051887939994812,-0.00530362408608,9.54246752372e-06,-1.75042805495e-05,0.220449760556,-9.74553585052,0.472563266754
1560051887943909883,-0.00364626848719,9.54246752372e-06,-1.75042805495e-05,0.220119550824,-9.76517677307,0.512566447258
1560051887947825670,-0.00181296560913,9.54246752372e-06,-0.000916613262399,0.200576230884,-9.76531982422,0.493075549603
1560051887951741695,-0.00195383565619,9.54246752372e-06,-1.75042805495e-05,0.240642994642,-9.74571418762,0.452182978392
1560051887955656528,-0.00243150889568,9.54246752372e-06,-1.75042805495e-05,0.221089139581,-9.78546524048,0.472827136517
1560051887959572554,-0.00181296560913,9.54246752372e-06,-1.75042805495e-05,0.220449760556,-9.74553585052,0.472563266754
1560051887963487387,-0.00181296560913,9.54246752372e-06,-1.75042805495e-05,0.220449760556,-9.74553585052,0.472563266754
1560051887967402458,-0.00181296560913,9.54246752372e-06,-0.00176283356268,0.221419334412,-9.76582241058,0.43282404542
1560051887971317053,-0.00181296560913,9.54246752372e-06,-0.00176283356268,0.200576230884,-9.76531982422,0.493075549603
1560051887975231886,-6.76363852108e-05,0.00432295151702,-0.00176283356268,0.240312755108,-9.76535511017,0.492186069489
1560051887979146957,-0.000194749719209,0.00343664436938,-0.00169927689383,0.219805121422,-9.72540950775,0.492366939783
1560051887983061790,-0.00355829484761,0.000705179694488,-1.75042805495e-05,0.200906440616,-9.74567890167,0.453072428703
1560051887986976624,-0.00355829484761,0.00175487168599,-1.75042805495e-05,0.200901180506,-9.76548194885,0.473139941692
1560051887990892649,-0.00355829484761,0.00303233968586,-1.75042805495e-05,0.220769450068,-9.76550006866,0.472695201635
1560051887994807482,-0.00355829484761,0.00350020104088,-0.000536197497451,0.220769450068,-9.76550006866,0.472695201635
1560051887998722315,-0.00506303838256,0.00199545740556,-0.00176283356268,0.199936851859,-9.72539138794,0.492811709642
1560051888002637148,-0.00530362408608,9.54246752372e-06,-0.0010174500413,0.221419334412,-9.76582241058,0.43282404542
1560051888006552219,-0.00530362408608,9.54246752372e-06,-1.75042805495e-05,0.200901180506,-9.76548194885,0.473139941692
1560051888010467052,-0.00433133583827,0.00272715999865,-1.75042805495e-05,0.200901180506,-9.76548194885,0.473139941692
1560051888014381886,-0.00377151339021,0.00350020104088,-1.75042805495e-05,0.220455020666,-9.72573280334,0.452495783567
1560051888018296003,-0.00530362408608,0.00230143092839,-0.00121627434306,0.200576230884,-9.76531982422,0.493075549603
1560051888022210598,-0.00355829484761,9.54246752372e-06,-0.000457370396891,0.181357860565,-9.76562595367,0.453649103642
1560051888026125431,-0.00213241598081,9.54246752372e-06,-0.000336954660218,0.200901180506,-9.76548194885,0.473139941692
1560051888030040503,-0.00247965192759,9.54246752372e-06,-1.75042805495e-05,0.201226130128,-9.76564311981,0.453204363585
1560051888033955336,-0.00355829484761,0.00166207611215,-0.00167003798546,0.220764189959,-9.78530311584,0.492762714624
1560051888037871361,-0.00530362408608,9.54246752372e-06,-0.00350816268474,0.201226130128,-9.76564311981,0.453204363585
1560051888041786194,-0.00355829484761,0.00189013870618,-0.00162756654812,0.200581490993,-9.74551773071,0.473008036613
1560051888045701027,-0.00355829484761,0.00350020104088,-1.75042805495e-05,0.220449760556,-9.74553585052,0.472563266754
1560051888049615860,-0.00355829484761,0.00350020104088,-1.75042805495e-05,0.241926968098,-9.80576896667,0.432643145323
1560051888053530693,-0.00355829484761,0.00350020104088,-1.75042805495e-05,0.220444500446,-9.76533794403,0.492630809546
1560051888057446718,-0.00414871966683,0.00350020104088,-1.75042805495e-05,0.220779955387,-9.7258939743,0.43256020546
1560051888061361551,-0.00530362408608,0.00192373171441,-1.75042805495e-05,0.239993095398,-9.74539089203,0.492054134607
1560051888065276623,-0.00530362408608,0.00175487168599,-1.75042805495e-05,0.201226130128,-9.76564311981,0.453204363585
1560051888069191456,-0.00530362408608,0.00169696560445,-1.75042805495e-05,0.220455020666,-9.72573280334,0.452495783567
1560051888073106289,-0.00425942014664,9.54246752372e-06,-1.75042805495e-05,0.200906440616,-9.74567890167,0.453072428703
1560051888077022314,-0.00384430229277,0.000295549909407,-1.75042805495e-05,0.200581490993,-9.74551773071,0.473008036613
1560051888080935955,-0.00530362408608,0.00175487168599,-0.00128883051711,0.220449760556,-9.74553585052,0.472563266754
1560051888084850788,-0.00530362408608,0.00124266469892,-1.75042805495e-05,0.221094399691,-9.76566123962,0.452759623528
1560051888088765860,-0.00530362408608,9.54246752372e-06,-1.75042805495e-05,0.221099644899,-9.74585819244,0.432692110538
1560051888092681646,-0.00355829484761,9.54246752372e-06,-1.75042805495e-05,0.240962654352,-9.76567840576,0.452314913273
1560051888096596718,-0.00528498763781,9.54246752372e-06,-1.75042805495e-05,0.220769450068,-9.76550006866,0.472695201635
1560051888100511551,-0.00530362408608,0.000976710899714,-1.75042805495e-05,0.201226130128,-9.76564311981,0.453204363585
1560051888104427576,-0.00509498314059,0.00175487168599,-1.75042805495e-05,0.200586751103,-9.72571468353,0.452940523624
1560051888108342171,-0.00475294896386,0.00294952588193,-1.75042805495e-05,0.220779955387,-9.7258939743,0.43256020546
1560051888112257004,-0.00530362408608,0.00524553004652,-1.75042805495e-05,0.260500729084,-9.78533840179,0.49187323451
1560051888116172075,-0.00388178113909,0.00524553004652,-0.00143934726311,0.220769450068,-9.76550006866,0.472695201635
1560051888120086908,-0.00530362408608,0.0028374284084,-0.00176283356268,0.220774710178,-9.74569702148,0.452627718449
1560051888124001980,-0.00530362408608,0.00175487168599,-0.00176283356268,0.221099644899,-9.74585819244,0.432692110538
1560051888127917767,-0.00266782704123,0.00090001026369,-1.75042805495e-05,0.200895920396,-9.78528499603,0.493207454681
1560051888131832600,-0.00194407338329,0.00188597946889,-1.75042805495e-05,0.221094399691,-9.76566123962,0.452759623528
1560051888135747671,-0.00355829484761,0.00461768389648,-1.75042805495e-05,0.220439240336,-9.78514194489,0.512698292732
1560051888139663219,-0.00355829484761,0.00488664829192,-1.75042805495e-05,0.220444500446,-9.76533794403,0.492630809546
1560051888143579245,-0.00221245836527,0.00350020104088,-1.75042805495e-05,0.240318030119,-9.74555301666,0.472118556499
1560051888147494078,-0.00181296560913,0.00234163771945,-0.00234959951786,0.220444500446,-9.76533794403,0.492630809546
1560051888151409149,-0.00338609134627,0.00192707519881,-0.00350816268474,0.200576230884,-9.76531982422,0.493075549603
1560051888155324936,-0.00181296560913,0.00256930326249,-0.00350816268474,0.220769450068,-9.76550006866,0.472695201635
1560051888159240007,-0.00355829484761,0.00350020104088,-0.00350816268474,0.220449760556,-9.74553585052,0.472563266754
1560051888163155794,-0.00460083382667,0.00350020104088,-0.00142308477008,0.221089139581,-9.78546524048,0.472827136517
1560051888167070627,-0.00530362408608,0.00175487168599,-1.75042805495e-05,0.221094399691,-9.76566123962,0.452759623528
1560051888170986652,-0.00530362408608,0.00302486698635,-0.00128749952796,0.240637689829,-9.7655172348,0.472250461578
1560051888174901485,-0.00355829484761,0.00473460518284,-0.00176283356268,0.220444500446,-9.76533794403,0.492630809546
1560051888178816319,-0.00355829484761,0.00350020104088,-0.00176283356268,0.240957409143,-9.78548240662,0.47238239646
1560051888182731152,-0.00181296560913,0.00101675701419,-0.00102471886395,0.220769450068,-9.76550006866,0.472695201635
1560051888186645985,-0.00181296560913,9.54246752372e-06,-1.75042805495e-05,0.200256541371,-9.74535560608,0.492943614721
1560051888190561056,-0.00452337490503,9.54246752372e-06,-0.000982584362108,0.220764189959,-9.78530311584,0.492762714624
1560051888194475889,-0.00550985694335,0.00175487168599,-1.75042805495e-05,0.220444500446,-9.76533794403,0.492630809546
1560051888198391914,-0.00585572673145,0.00175487168599,-1.75042805495e-05,0.200581490993,-9.74551773071,0.473008036613
1560051888202306747,-0.00530362408608,0.00132099365889,-1.75042805495e-05,0.200576230884,-9.76531982422,0.493075549603
1560051888206221581,-0.00388377679589,9.54246752372e-06,-1.75042805495e-05,0.220449760556,-9.74553585052,0.472563266754
1560051888210137367,-0.00355829484761,0.000670984323464,-1.75042805495e-05,0.221089139581,-9.78546524048,0.472827136517
1560051888214052200,-0.00355829484761,0.00175487168599,-1.75042805495e-05,0.200901180506,-9.76548194885,0.473139941692
1560051888217967272,-0.00181296560913,0.00261156972484,-0.000874202283682,0.221089139581,-9.78546524048,0.472827136517
1560051888221881151,-6.76363852108e-05,0.00162659229727,-0.00163455416928,0.200906440616,-9.74567890167,0.453072428703
1560051888225797176,-0.00118348874355,9.54246752372e-06,-1.75042805495e-05,0.220444500446,-9.76533794403,0.492630809546
1560051888229712009,-0.00216935175836,9.54246752372e-06,-0.000373890438687,0.220449760556,-9.74553585052,0.472563266754
1560051888233626604,-0.00490063836882,9.54246752372e-06,-0.000420490007896,0.220449760556,-9.74553585052,0.472563266754
1560051888237542629,-0.00530362408608,9.54246752372e-06,-1.75042805495e-05,0.200901180506,-9.76548194885,0.473139941692
1560051888241457462,-0.00530362408608,9.54246752372e-06,-1.75042805495e-05,0.200581490993,-9.74551773071,0.473008036613
1560051888245372534,-0.00530362408608,0.000820836131924,-0.000828797974543,0.200576230884,-9.76531982422,0.493075549603
1560051888249288321,-0.00345251609239,0.00175487168599,-0.00176283356268,0.221089139581,-9.78546524048,0.472827136517
1560051888253203392,-6.76363852108e-05,0.00175487168599,-0.000723689387974,0.20154055953,-9.80541133881,0.473403781652
1560051888257119179,-0.00237366813059,9.54246752372e-06,-1.75042805495e-05,0.221419334412,-9.76582241058,0.43282404542
1560051888261034012,-0.00657012719925,9.54246752372e-06,-1.75042805495e-05,0.221094399691,-9.76566123962,0.452759623528
1560051888264949083,-0.00654116105321,0.00175487168599,-1.75042805495e-05,0.200256541371,-9.74535560608,0.492943614721
1560051888268863678,-0.00530362408608,0.00175487168599,-1.75042805495e-05,0.221414089203,-9.78562641144,0.452891558409
1560051888272778749,-0.00429319624707,9.54246752372e-06,-0.000752405698391,0.200901180506,-9.76548194885,0.473139941692
1560051888276693583,-0.00530362408608,9.54246752372e-06,-0.00176283356268,0.220769450068,-9.76550006866,0.472695201635
1560051888280608416,-0.00530362408608,9.54246752372e-06,-0.00080094846809,0.200256541371,-9.74535560608,0.492943614721
1560051888284523487,-0.00355829484761,9.54246752372e-06,-1.75042805495e-05,0.220444500446,-9.76533794403,0.492630809546
1560051888288438320,-0.00236934146378,9.54246752372e-06,-1.75042805495e-05,0.221089139581,-9.78546524048,0.472827136517
1560051888292354345,-0.00181296560913,9.54246752372e-06,-1.75042805495e-05,0.220455020666,-9.72573280334,0.452495783567
1560051888296268940,-0.00322969357563,9.54246752372e-06,-1.75042805495e-05,0.220449760556,-9.74553585052,0.472563266754
1560051888300183773,-0.00530362408608,0.000666911092116,-1.75042805495e-05,0.220449760556,-9.74553585052,0.472563266754
1560051888304098845,-0.0069473245506,0.00175487168599,-0.00166120478618,0.220124810934,-9.74537372589,0.492498874664
1560051888308013678,-0.00530362408608,9.54246752372e-06,-0.00176283356268,0.220449760556,-9.74553585052,0.472563266754
1560051888311928749,-0.00355829484761,9.54246752372e-06,-0.00176283356268,0.220449760556,-9.74553585052,0.472563266754
1560051888315843582,-0.00355829484761,9.54246752372e-06,-0.00176283356268,0.220124810934,-9.74537372589,0.492498874664
1560051888319758415,-0.00530362408608,0.0021069320305,-1.75042805495e-05,0.220769450068,-9.76550006866,0.472695201635
1560051888323674202,-0.00396426250489,0.00483956244339,-1.75042805495e-05,0.240637689829,-9.7655172348,0.472250461578
1560051888327589035,-0.00413835182761,0.00292014402219,-1.75042805495e-05,0.221414089203,-9.78562641144,0.452891558409
1560051888331504107,-0.00530362408608,0.000188499114418,-1.75042805495e-05,0.220124810934,-9.74537372589,0.492498874664
1560051888335419893,-0.00530362408608,9.54246752372e-06,-1.75042805495e-05,0.221094399691,-9.76566123962,0.452759623528
1560051888339334965,-0.00350937908795,9.54246752372e-06,-0.00176283356268,0.221419334412,-9.76582241058,0.43282404542
1560051888343250751,-0.00181296560913,9.54246752372e-06,-0.00176283356268,0.221089139581,-9.78546524048,0.472827136517
1560051888347166538,-0.00209021594391,9.54246752372e-06,-0.00176283356268,0.240318030119,-9.74555301666,0.472118556499
1560051888351082563,-0.00355829484761,9.54246752372e-06,-0.00176283356268,0.221094399691,-9.76566123962,0.452759623528
1560051888354997396,-0.00530362408608,9.54246752372e-06,-0.00125798820499,0.200586751103,-9.72571468353,0.452940523624
1560051888358913422,-0.00381190367437,9.54246752372e-06,-1.75042805495e-05,0.220449760556,-9.74553585052,0.472563266754
1560051888362829208,-0.00107967472609,-0.00173578679096,-1.75042805495e-05,0.199936851859,-9.72539138794,0.492811709642
1560051888366744041,-6.76363852108e-05,-0.00173578679096,-1.75042805495e-05,0.220769450068,-9.76550006866,0.472695201635
1560051888370658875,-0.00102802527368,9.54246752372e-06,-1.75042805495e-05,0.221419334412,-9.76582241058,0.43282404542
1560051888374574900,-0.00355829484761,0.00350020104088,-1.75042805495e-05,0.240318030119,-9.74555301666,0.472118556499
1560051888378490686,-0.00355829484761,0.00350020104088,-1.75042805495e-05,0.220769450068,-9.76550006866,0.472695201635
1560051888382405519,-0.00355829484761,0.00132481755783,-1.75042805495e-05,0.200906440616,-9.74567890167,0.453072428703
1560051888386320591,-0.00355829484761,9.54246752372e-06,-1.75042805495e-05,0.221099644899,-9.74585819244,0.432692110538
1560051888390237331,-0.00355829484761,-0.000648658008737,-1.75042805495e-05,0.240318030119,-9.74555301666,0.472118556499
1560051888394153357,-0.00355829484761,-9.07463079688e-05,-1.75042805495e-05,0.221094399691,-9.76566123962,0.452759623528
1560051888398068190,-0.00355829484761,9.54246752372e-06,-1.75042805495e-05,0.221094399691,-9.76566123962,0.452759623528
1560051888401984215,-0.00343068120582,9.54246752372e-06,-1.75042805495e-05,0.220769450068,-9.76550006866,0.472695201635
1560051888405898809,-0.00181296560913,9.54246752372e-06,-1.75042805495e-05,0.220774710178,-9.74569702148,0.452627718449
1560051888409813881,-0.00355829484761,0.000364428672367,-0.00176283356268,0.221094399691,-9.76566123962,0.452759623528
1560051888415521383,-0.00204822888967,0.000244805745364,-0.00176283356268,0.240642994642,-9.74571418762,0.452182978392
1560051888419437885,-0.00181296560913,9.54246752372e-06,-1.75042805495e-05,0.221094399691,-9.76566123962,0.452759623528
1560051888423353434,-0.00181296560913,9.54246752372e-06,-1.75042805495e-05,0.240962654352,-9.76567840576,0.452314913273
1560051888427269697,-0.00262374836413,9.54246752372e-06,-1.75042805495e-05,0.200901180506,-9.76548194885,0.473139941692
1560051888431185246,-0.00530362408608,0.00175487168599,-1.75042805495e-05,0.180707961321,-9.76530265808,0.49352028966
1560051888435101748,-0.00530362408608,0.00175487168599,-1.75042805495e-05,0.220769450068,-9.76550006866,0.472695201635
1560051888439018250,-0.00327810390334,0.00147468074494,-0.00176283356268,0.220774710178,-9.74569702148,0.452627718449
1560051888442934513,-0.00181296560913,9.54246752372e-06,-0.000495968570239,0.201226130128,-9.76564311981,0.453204363585
1560051888446850061,-0.00181296560913,0.00102554404509,-1.75042805495e-05,0.220449760556,-9.74553585052,0.472563266754
1560051888450765371,-0.00330722674697,0.00350020104088,-0.00151176545576,0.201226130128,-9.76564311981,0.453204363585
1560051888454680920,-0.00355829484761,0.00101987334236,-0.00176283356268,0.200901180506,-9.76548194885,0.473139941692
1560051888458597422,-0.00355829484761,9.54246752372e-06,-0.00176283356268,0.220444500446,-9.76533794403,0.492630809546
1560051888462513924,-0.00355829484761,0.00446358285447,-0.00176283356268,0.220444500446,-9.76533794403,0.492630809546
1560051888466429234,-0.00530362408608,0.00350020104088,-0.00176283356268,0.219794601202,-9.76501464844,0.532501995564
1560051888470345736,-0.00530362408608,0.00350020104088,-0.00176283356268,0.219794601202,-9.76501464844,0.532501995564
1560051888474261045,-0.00487157435673,0.00175487168599,-1.75042805495e-05,0.221419334412,-9.76582241058,0.43282404542
1560051888478177547,-0.0049772476971,0.00175487168599,-1.75042805495e-05,0.221094399691,-9.76566123962,0.452759623528
1560051888482093096,-0.00530362408608,0.00350020104088,-1.75042805495e-05,0.199936851859,-9.72539138794,0.492811709642
1560051888486009598,-0.003656606579,0.00350020104088,-1.75042805495e-05,0.220124810934,-9.74537372589,0.492498874664
1560051888489924908,-0.0026705738139,0.00350020104088,-1.75042805495e-05,0.240637689829,-9.7655172348,0.472250461578
1560051888493840218,-0.00194123279323,9.54246752372e-06,-0.000145771467851,0.20154055953,-9.80541133881,0.473403781652
1560051888497756481,-0.00355829484761,9.54246752372e-06,-0.00176283356268,0.220449760556,-9.74553585052,0.472563266754
1560051888501672029,-0.00320197665641,9.54246752372e-06,-0.00176283356268,0.220774710178,-9.74569702148,0.452627718449
1560051888505588531,-0.00181296560913,9.54246752372e-06,-0.000419748522683,0.220764189959,-9.78530311584,0.492762714624
1560051888509505033,-0.00181296560913,9.54246752372e-06,-1.75042805495e-05,0.221099644899,-9.74585819244,0.432692110538
1560051888513420343,-0.00181296560913,0.00158052151353,-1.75042805495e-05,0.241292893887,-9.74603748322,0.412311792374
1560051888517336845,-0.00437057490203,0.00175487168599,-1.75042805495e-05,0.220769450068,-9.76550006866,0.472695201635
1560051888521252155,-0.00530362408608,9.54246752372e-06,-0.00170993479595,0.221414089203,-9.78562641144,0.452891558409
1560051888525167704,-0.00530362408608,9.54246752372e-06,-0.00105701664287,0.220774710178,-9.74569702148,0.452627718449
1560051888529083252,-0.00502316022805,0.00175487168599,-0.00176283356268,0.240323275328,-9.72574996948,0.45205104351
1560051888532997608,-0.00355829484761,0.00175487168599,-0.00176283356268,0.220449760556,-9.74553585052,0.472563266754
1560051888536914110,-0.00355829484761,0.00124736959431,-0.00125533145249,0.200576230884,-9.76531982422,0.493075549603
1560051888540829659,-0.00355829484761,9.54246752372e-06,-1.75042805495e-05,0.181027650833,-9.7852678299,0.493652194738
1560051888544744968,-0.00530362408608,9.54246752372e-06,-1.75042805495e-05,0.200256541371,-9.74535560608,0.492943614721
1560051888548660517,-0.00530362408608,9.54246752372e-06,-1.75042805495e-05,0.220769450068,-9.76550006866,0.472695201635
1560051888552575588,-0.00530362408608,9.54246752372e-06,-0.000978924105371,0.220449760556,-9.74553585052,0.472563266754
1560051888556491137,-0.00530362408608,9.54246752372e-06,-0.00350816268474,0.220444500446,-9.76533794403,0.492630809546
1560051888560407639,-0.0064926765073,9.54246752372e-06,-0.00231911034283,0.200251281261,-9.76515865326,0.513011157513
1560051888564321995,-0.00661952536328,9.54246752372e-06,-1.75042805495e-05,0.200576230884,-9.76531982422,0.493075549603
1560051888568238497,-0.00530362408608,9.54246752372e-06,-1.75042805495e-05,0.220124810934,-9.74537372589,0.492498874664
1560051888572154045,-0.00290090665726,9.54246752372e-06,-1.75042805495e-05,0.220444500446,-9.76533794403,0.492630809546
1560051888576070309,-0.000168775960392,9.54246752372e-06,-1.75042805495e-05,0.220774710178,-9.74569702148,0.452627718449
1560051888579985857,-0.000952528598924,-0.00262067895303,-1.75042805495e-05,0.220769450068,-9.76550006866,0.472695201635
1560051888583901405,-0.00181296560913,-0.00348111591302,0.001602219826,0.220449760556,-9.74553585052,0.472563266754
1560051888587816715,-0.00181296560913,-0.00236890952846,-1.75042805495e-05,0.220774710178,-9.74569702148,0.452627718449
1560051888591732264,-0.00355829484761,9.54246752372e-06,-1.75042805495e-05,0.240962654352,-9.76567840576,0.452314913273
1560051888595648766,-0.0048980551065,0.00134930271106,-0.00135726457295,0.220124810934,-9.74537372589,0.492498874664
1560051888599564075,-0.00472295661988,0.00117420422644,-0.00118216608195,0.200901180506,-9.76548194885,0.473139941692
1560051888603479385,-0.00199162426968,-0.00155712812836,-1.75042805495e-05,0.221094399691,-9.76566123962,0.452759623528
1560051888607394695,-6.76363852108e-05,-0.00267374953965,-1.75042805495e-05,0.201220870018,-9.78544712067,0.473271876574
1560051888611310244,-0.000116524191937,-0.00173578679096,-1.75042805495e-05,0.241282373667,-9.78564357758,0.452446818352
1560051888615225792,-0.00181296560913,-0.000700932397558,-0.00105235868797,0.221403568983,-9.8252325058,0.493026584387
1560051888619142056,-0.00181296560913,9.54246752372e-06,-1.75042805495e-05,0.220449760556,-9.74553585052,0.472563266754
1560051888623057604,-0.00307523649799,-0.00251499924046,-1.75042805495e-05,0.220764189959,-9.78530311584,0.492762714624
1560051888626973152,-0.00355829484761,-0.00297757889422,-1.75042805495e-05,0.220449760556,-9.74553585052,0.472563266754
1560051888630888462,-0.00206873673873,-0.000246228665008,-1.75042805495e-05,0.220449760556,-9.74553585052,0.472563266754
1560051888634804964,-0.00428945055488,0.00350020104088,-1.75042805495e-05,0.240962654352,-9.76567840576,0.452314913273
1560051888638721466,-0.00530362408608,0.00521841280397,-1.75042805495e-05,0.200581490993,-9.74551773071,0.473008036613
1560051888642636776,-0.00355829484761,0.00079620477381,-1.75042805495e-05,0.220769450068,-9.76550006866,0.472695201635
1560051888646552324,-0.00355829484761,9.54246752372e-06,-0.000216975269018,0.220774710178,-9.74569702148,0.452627718449
1560051888650467634,-0.00355829484761,9.54246752372e-06,-0.00176283356268,0.221733778715,-9.80559062958,0.453023463488
1560051888654384136,-0.00398581081261,9.54246752372e-06,-1.75042805495e-05,0.221089139581,-9.78546524048,0.472827136517
1560051888658299446,-0.00530362408608,0.0014231011957,-0.00143106306029,0.221089139581,-9.78546524048,0.472827136517
1560051888662214756,-0.00530362408608,0.00240926617684,-0.00110843909911,0.20155107975,-9.76580429077,0.433268785477
1560051888666131258,-0.00530362408608,0.00350020104088,-1.75042805495e-05,0.240967929363,-9.74587535858,0.432247370481
1560051888670046806,-0.00355829484761,0.00175487168599,-1.75042805495e-05,0.221094399691,-9.76566123962,0.452759623528
1560051888673963070,-0.00343441225857,0.00175487168599,-1.75042805495e-05,0.200895920396,-9.78528499603,0.493207454681
1560051888677879572,-0.00181296560913,0.00286552078687,-0.00112815333513,0.20155107975,-9.76580429077,0.433268785477
1560051888681795120,-0.00181296560913,0.00350020104088,-0.00176283356268,0.202200978994,-9.76612758636,0.393397569656
1560051888685711622,-0.00181296560913,0.00216130035425,-0.000423932931868,0.240962654352,-9.76567840576,0.452314913273
1560051888689627886,-0.00297840289333,0.00175487168599,-0.00176283356268,0.220774710178,-9.74569702148,0.452627718449
1560051888693544388,-0.00181296560913,0.00175487168599,-0.00176283356268,0.201226130128,-9.76564311981,0.453204363585
1560051888697460890,-0.00262161055633,0.00175487168599,-0.00176283356268,0.220779955387,-9.7258939743,0.43256020546
1560051888701376200,-0.00525423220672,0.00180426356864,-1.75042805495e-05,0.221099644899,-9.74585819244,0.432692110538
1560051888705292702,-0.00355829484761,0.00246401534731,-1.75042805495e-05,0.201231390238,-9.74584007263,0.433136850595
1560051888709208250,-0.00181296560913,0.00147734151828,-1.75042805495e-05,0.221094399691,-9.76566123962,0.452759623528
1560051888713123560,-0.00181296560913,0.00127295966168,-1.75042805495e-05,0.240637689829,-9.7655172348,0.472250461578
1560051888717040062,-0.00355829484761,0.00400506877295,-0.00176283356268,0.221094399691,-9.76566123962,0.452759623528
1560051888720955610,-0.00504977601611,0.00375404907698,-0.00176283356268,0.239673376083,-9.72542667389,0.491922229528
1560051888724870920,-0.0042904646809,0.00102270186109,-1.75042805495e-05,0.220769450068,-9.76550006866,0.472695201635
1560051888728786469,-0.00530362408608,9.54246752372e-06,-1.75042805495e-05,0.220130071044,-9.72557163239,0.472431361675
1560051888732702971,-0.00434395873032,9.54246752372e-06,-1.75042805495e-05,0.220130071044,-9.72557163239,0.472431361675
1560051888736618280,-0.00355829484761,0.00021041454518,-0.000218376365533,0.220769450068,-9.76550006866,0.472695201635
1560051888740533590,-0.00355829484761,0.00175487168599,-0.00176283356268,0.220769450068,-9.76550006866,0.472695201635
1560051888744448900,-0.00398564405839,9.54246752372e-06,-1.75042805495e-05,0.220449760556,-9.74553585052,0.472563266754
1560051888748365402,-0.00530362408608,9.54246752372e-06,-1.75042805495e-05,0.200261801481,-9.72555351257,0.472876101732
1560051888752280951,-0.00530362408608,0.00175487168599,-0.000672918165307,0.201226130128,-9.76564311981,0.453204363585
1560051888756196260,-0.00530362408608,0.00175487168599,-0.00176283356268,0.200906440616,-9.74567890167,0.453072428703
1560051888760111809,-0.00530362408608,0.00263726498305,-0.000880440302409,0.221094399691,-9.76566123962,0.452759623528
1560051888764028311,-0.00692490474225,0.00350020104088,-1.75042805495e-05,0.221419334412,-9.76582241058,0.43282404542
1560051888767943621,-0.00530362408608,0.00350020104088,-1.75042805495e-05,0.221089139581,-9.78546524048,0.472827136517
1560051888771859169,-0.00320746559145,0.00559635930268,-1.75042805495e-05,0.220764189959,-9.78530311584,0.492762714624
1560051888775774717,-0.00181296560913,0.00832842920998,-1.75042805495e-05,0.220449760556,-9.74553585052,0.472563266754
1560051888779691935,-0.00181296560913,0.00641141183951,-1.75042805495e-05,0.201220870018,-9.78544712067,0.473271876574
1560051888783608437,-0.0033792062455,0.00211304887825,-1.75042805495e-05,0.220444500446,-9.76533794403,0.492630809546
1560051888787523985,-0.00449639877206,9.54246752372e-06,-1.75042805495e-05,0.220444500446,-9.76533794403,0.492630809546
1560051888791439295,-0.00530362408608,0.000105655361966,-1.75042805495e-05,0.200586751103,-9.72571468353,0.452940523624
1560051888795355797,-0.00530362408608,0.00453498768097,-1.75042805495e-05,0.20155107975,-9.76580429077,0.433268785477
1560051888799272299,-0.00530362408608,0.00350020104088,-1.75042805495e-05,0.200901180506,-9.76548194885,0.473139941692
1560051888803188562,-0.00404020687744,0.00350020104088,-0.00128092152079,0.221083879471,-9.80526733398,0.492894649506
1560051888807104111,-0.00355829484761,0.00574966279517,-0.00176283356268,0.20154055953,-9.80541133881,0.473403781652
1560051888811019421,-0.00355829484761,0.00550004304023,-0.00176283356268,0.221744298935,-9.76598453522,0.41288843751
1560051888814935684,-0.0042903947271,0.0045134302647,-0.00103073366488,0.220124810934,-9.74537372589,0.492498874664
1560051888818851233,-0.00530362408608,0.00178214201035,-1.75042805495e-05,0.221089139581,-9.78546524048,0.472827136517
1560051888822767735,-0.00355829484761,0.00271467024584,-0.000977302800392,0.221094399691,-9.76566123962,0.452759623528
1560051888826683044,-0.00181296560913,0.00350020104088,-1.75042805495e-05,0.220444500446,-9.76533794403,0.492630809546
1560051888830598593,-0.00181296560913,0.00231346998752,-1.75042805495e-05,0.220444500446,-9.76533794403,0.492630809546
1560051888834514141,-0.00181296560913,9.54246752372e-06,-1.75042805495e-05,0.220449760556,-9.74553585052,0.472563266754
1560051888838430405,-0.00181296560913,9.54246752372e-06,-1.75042805495e-05,0.200570970774,-9.78512382507,0.513143062592
1560051888842346907,-0.00246904440124,-0.00173578679096,-1.75042805495e-05,0.220769450068,-9.76550006866,0.472695201635
1560051888846262455,-0.00355829484761,-0.00173578679096,-1.75042805495e-05,0.221089139581,-9.78546524048,0.472827136517
1560051888850177765,-0.00355829484761,9.54246752372e-06,-1.75042805495e-05,0.200895920396,-9.78528499603,0.493207454681
1560051888854093313,-0.00530362408608,9.54246752372e-06,-1.75042805495e-05,0.239668130875,-9.74522972107,0.511989712715
1560051888858009815,-0.00530362408608,9.54246752372e-06,-1.75042805495e-05,0.180063322186,-9.74517726898,0.513323962688
1560051888861926079,-0.00530362408608,0.000714924600939,-1.75042805495e-05,0.221094399691,-9.76566123962,0.452759623528
1560051888865842581,-0.00530362408608,0.00350020104088,-0.00135707075866,0.200906440616,-9.74567890167,0.453072428703
1560051888869759083,-0.00530362408608,0.00350020104088,-1.75042805495e-05,0.220769450068,-9.76550006866,0.472695201635
1560051888873675346,-0.0037354731369,0.00350020104088,-1.75042805495e-05,0.200895920396,-9.78528499603,0.493207454681
1560051888877590895,-6.76363852108e-05,0.00269133711721,-0.00176283356268,0.220769450068,-9.76550006866,0.472695201635
1560051888881507397,-0.00181296560913,9.54246752372e-06,-1.75042805495e-05,0.200581490993,-9.74551773071,0.473008036613
1560051888885423660,-0.00285011725375,9.54246752372e-06,-1.75042805495e-05,0.200581490993,-9.74551773071,0.473008036613
1560051888889340162,-0.00530362408608,9.54246752372e-06,-1.75042805495e-05,0.201226130128,-9.76564311981,0.453204363585
1560051888893256664,-0.00530362408608,9.54246752372e-06,-1.75042805495e-05,0.220444500446,-9.76533794403,0.492630809546
1560051888897173166,-0.00479607371692,0.000517092830865,-1.75042805495e-05,0.220444500446,-9.76533794403,0.492630809546
1560051888901089430,-0.0020639852371,0.00175487168599,-0.00151181392843,0.220449760556,-9.74553585052,0.472563266754
1560051888905004978,-0.00181296560913,9.54246752372e-06,-0.00176283356268,0.221094399691,-9.76566123962,0.452759623528
1560051888908922434,-0.00181296560913,0.00173192417234,-4.04517950336e-05,0.181032910943,-9.76546478271,0.473584681749
1560051888912838697,-0.00355829484761,0.00253624598845,-1.75042805495e-05,0.240962654352,-9.76567840576,0.452314913273
1560051888916756153,-0.00376458674047,9.54246752372e-06,-0.00176283356268,0.199936851859,-9.72539138794,0.492811709642
1560051888920671701,-0.00411102709987,9.54246752372e-06,-0.000570236546634,0.200901180506,-9.76548194885,0.473139941692
1560051888924588203,-0.00355829484761,0.00218937443703,-1.75042805495e-05,0.220774710178,-9.74569702148,0.452627718449
1560051888928503513,-0.00213784469869,0.00207975079721,-1.75042805495e-05,0.219799861312,-9.74521255493,0.512434482574
1560051888932420015,-0.00181296560913,0.00109255812277,-0.000679817867928,0.220774710178,-9.74569702148,0.452627718449
1560051888936336517,-0.00181296560913,9.54246752372e-06,-0.00176283356268,0.221094399691,-9.76566123962,0.452759623528
1560051888940252781,-0.00270342967182,9.54246752372e-06,-1.75042805495e-05,0.199297457933,-9.68546199799,0.49254783988
1560051888944168329,-0.00355829484761,9.54246752372e-06,-0.000148753114012,0.200256541371,-9.74535560608,0.492943614721
1560051888948084831,-0.00355829484761,9.54246752372e-06,-0.00176283356268,0.200586751103,-9.72571468353,0.452940523624
1560051888952001095,-0.00217277796413,0.000369354818398,-0.00350816268474,0.200261801481,-9.72555351257,0.472876101732
1560051888955916405,-0.00490416932817,0.00175487168599,-0.00216228829395,0.240318030119,-9.74555301666,0.472118556499
1560051888959832907,-0.00646146758026,0.00116738594843,-0.00117534780369,0.201231390238,-9.74584007263,0.433136850595
1560051888963749170,-0.00530362408608,9.54246752372e-06,-1.75042805495e-05,0.200256541371,-9.74535560608,0.492943614721
1560051888967664719,-0.00355829484761,9.54246752372e-06,-1.75042805495e-05,0.20154581964,-9.78560829163,0.453336298466
1560051888971581221,-6.76363852108e-05,-0.00348111591302,-1.75042805495e-05,0.240642994642,-9.74571418762,0.452182978392
1560051888975496531,-6.76363852108e-05,-0.00348111591302,-1.75042805495e-05,0.240642994642,-9.74571418762,0.452182978392
1560051888979412079,-0.000351427066192,-0.00348111591302,-1.75042805495e-05,0.220769450068,-9.76550006866,0.472695201635
1560051888983327627,-0.00181296560913,-0.00348111591302,-1.75042805495e-05,0.220769450068,-9.76550006866,0.472695201635
1560051888987243891,-0.00181296560913,-0.00348111591302,-1.75042805495e-05,0.220769450068,-9.76550006866,0.472695201635
1560051888991159439,-0.00181296560913,-0.00348111591302,-1.75042805495e-05,0.220769450068,-9.76550006866,0.472695201635
1560051888995074987,-0.00181296560913,-0.00200413304827,-1.75042805495e-05,0.220769450068,-9.76550006866,0.472695201635
1560051888998991251,-0.00353866598387,0.00173524282248,-1.75042805495e-05,0.220774710178,-9.74569702148,0.452627718449
1560051889002906799,-0.00530362408608,0.00427902748059,-0.00176283356268,0.181357860565,-9.76562595367,0.453649103642
1560051889006822348,-0.00509633366563,0.00154758126791,-0.00176283356268,0.181027650833,-9.7852678299,0.493652194738
1560051889010737658,-0.00355829484761,-0.00118388659073,-0.00176283356268,0.200901180506,-9.76548194885,0.473139941692
1560051889014652967,-0.00355829484761,-0.00522644538432,-0.00132845660484,0.240642994642,-9.74571418762,0.452182978392
1560051889018569231,-0.00355829484761,-0.00522644538432,-1.75042805495e-05,0.200901180506,-9.76548194885,0.473139941692
1560051889022485733,-0.00289548233488,-0.00215549092417,-1.75042805495e-05,0.220769450068,-9.76550006866,0.472695201635
1560051889026400328,-0.000164617570596,0.00165789050091,-0.00166585237406,0.200901180506,-9.76548194885,0.473139941692
1560051889030316591,-0.00270259765178,9.54246752372e-06,-0.00439779472739,0.220769450068,-9.76550006866,0.472695201635
1560051889034232140,-0.00517274477813,9.54246752372e-06,-0.00512261261526,0.220124810934,-9.74537372589,0.492498874664
1560051889038147688,-0.00355829484761,9.54246752372e-06,-0.00239113203612,0.240962654352,-9.76567840576,0.452314913273
1560051889042062998,-0.00217064921746,0.00175487168599,-1.75042805495e-05,0.221419334412,-9.76582241058,0.43282404542
1560051889045979500,-0.00221371295185,0.00175487168599,-1.75042805495e-05,0.200906440616,-9.74567890167,0.453072428703
1560051889049895048,-0.00181296560913,9.54246752372e-06,-0.00176283356268,0.220769450068,-9.76550006866,0.472695201635
1560051889053810358,-0.00181296560913,-0.00156226844132,-0.00019102263254,0.220119550824,-9.76517677307,0.512566447258
1560051889057725906,-0.00181296560913,9.54246752372e-06,-1.75042805495e-05,0.20155107975,-9.76580429077,0.433268785477
1560051889061641216,-0.00361200482891,0.0001169624331,-0.00170912358003,0.200906440616,-9.74567890167,0.453072428703
1560051889065557718,-0.00530362408608,0.00350020104088,-1.75042805495e-05,0.220119550824,-9.76517677307,0.512566447258
1560051889069473028,-0.00502266136081,0.00147390896394,-1.75042805495e-05,0.220460265875,-9.70592880249,0.432428270578
1560051889073388338,-0.00229124746564,-0.00125750492897,-1.75042805495e-05,0.220769450068,-9.76550006866,0.472695201635
1560051889077304840,-0.000576496515305,9.54246752372e-06,-0.00125397341561,0.201226130128,-9.76564311981,0.453204363585
1560051889081220388,-0.00181296560913,0.00299963489605,-0.00151255049092,0.220444500446,-9.76533794403,0.492630809546
1560051889085135698,-0.00429427272905,0.00450955226326,-0.00350816268474,0.220769450068,-9.76550006866,0.472695201635
1560051889089051247,-0.00358125260882,0.00177782944873,-0.00350816268474,0.241287589073,-9.76583957672,0.432379305363
1560051889092967749,-0.00181296560913,9.54246752372e-06,-1.75042805495e-05,0.220774710178,-9.74569702148,0.452627718449
1560051889096883059,-0.00201782919947,9.54246752372e-06,-1.75042805495e-05,0.240962654352,-9.76567840576,0.452314913273
1560051889100799561,-0.00355829484761,9.54246752372e-06,-1.75042805495e-05,0.221089139581,-9.78546524048,0.472827136517
1560051889104716063,-0.00312524787519,0.000442589434977,-0.00176283356268,0.220774710178,-9.74569702148,0.452627718449
1560051889108632326,-0.00181296560913,0.000335129061371,-0.00176283356268,0.20155107975,-9.76580429077,0.433268785477
1560051889112548828,-0.00072926775439,9.54246752372e-06,-1.75042805495e-05,0.221408829093,-9.80542945862,0.472959041595
1560051889116464376,-0.00181296560913,9.54246752372e-06,-1.75042805495e-05,0.221414089203,-9.78562641144,0.452891558409
1560051889120380878,-0.00355829484761,0.00264433097081,-1.75042805495e-05,0.201870769262,-9.78576946259,0.433400690556
1560051889124296188,-0.00355829484761,0.00175487168599,-0.00176283356268,0.200586751103,-9.72571468353,0.452940523624
1560051889128212690,-0.00355829484761,0.00287206854014,-0.000645636755098,0.201226130128,-9.76564311981,0.453204363585
1560051889132128000,-0.00355829484761,0.00350020104088,-1.75042805495e-05,0.239993095398,-9.74539089203,0.492054134607
1560051889136044502,-0.00355829484761,0.00215561921558,-1.75042805495e-05,0.220449760556,-9.74553585052,0.472563266754
1560051889139961004,-0.00530362408608,9.54246752372e-06,-0.000604049367167,0.239993095398,-9.74539089203,0.492054134607
1560051889143877506,-0.00530362408608,0.00158276665976,-0.00176283356268,0.220449760556,-9.74553585052,0.472563266754
1560051889147793770,-0.00530362408608,0.00175487168599,-0.00176283356268,0.200581490993,-9.74551773071,0.473008036613
1560051889151709318,-0.0052477313972,6.54351557659e-05,-0.00176283356268,0.220444500446,-9.76533794403,0.492630809546
1560051889155625820,-0.00355829484761,0.00279764592854,-0.000720059363603,0.21948543191,-9.70544433594,0.492235034704
1560051889159542084,-0.00181296560913,0.00496118222202,-0.000301852150093,0.220124810934,-9.74537372589,0.492498874664
1560051889163457632,-0.00181296560913,0.00350020104088,-0.00176283356268,0.200901180506,-9.76548194885,0.473139941692
1560051889167374134,-0.00130094482244,0.0012428509009,-0.00176283356268,0.200906440616,-9.74567890167,0.453072428703
1560051889171290398,-0.0015663417201,9.54246752372e-06,-0.000264128177811,0.201226130128,-9.76564311981,0.453204363585
1560051889175206900,-0.00355829484761,9.54246752372e-06,-1.75042805495e-05,0.220124810934,-9.74537372589,0.492498874664
1560051889179123402,-0.00183093282574,9.54246752372e-06,-1.75042805495e-05,0.20155107975,-9.76580429077,0.433268785477
1560051889183039904,-0.00258935099459,0.000978486309433,-0.00176283356268,0.200581490993,-9.74551773071,0.473008036613
1560051889186954975,-0.00181296560913,9.54246752372e-06,-0.00155314787672,0.220449760556,-9.74553585052,0.472563266754
1560051889190871477,-0.00300945844819,9.54246752372e-06,-1.75042805495e-05,0.200256541371,-9.74535560608,0.492943614721
1560051889194787025,-0.00399545883519,-0.00173578679096,-1.75042805495e-05,0.239673376083,-9.72542667389,0.491922229528
1560051889198703289,-0.00530362408608,-0.000311374256057,-1.75042805495e-05,0.220130071044,-9.72557163239,0.472431361675
1560051889202619791,-0.00463777030206,9.54246752372e-06,-1.75042805495e-05,0.200256541371,-9.74535560608,0.492943614721
1560051889206535339,-0.00355829484761,9.54246752372e-06,-1.75042805495e-05,0.201226130128,-9.76564311981,0.453204363585
1560051889210451603,-0.00445183022306,0.000861336320782,-0.00091103967835,0.202190458775,-9.80573368073,0.433532625437
1560051889214368105,-0.00530362408608,9.54246752372e-06,-0.00337290860766,0.221083879471,-9.80526733398,0.492894649506
1560051889218284607,-0.0041813652243,9.54246752372e-06,-0.00176283356268,0.220764189959,-9.78530311584,0.492762714624
1560051889222200871,-0.0039219955794,0.000373243195143,-1.75042805495e-05,0.220119550824,-9.76517677307,0.512566447258
1560051889226117373,-0.00530362408608,0.00175487168599,-1.75042805495e-05,0.220444500446,-9.76533794403,0.492630809546
1560051889230032921,-0.00530362408608,9.54246752372e-06,-1.75042805495e-05,0.180707961321,-9.76530265808,0.49352028966
1560051889233949184,-0.00372574439235,9.54246752372e-06,-1.75042805495e-05,0.221419334412,-9.76582241058,0.43282404542
1560051889237865686,-0.00181296560913,-0.00163032130787,-1.75042805495e-05,0.221094399691,-9.76566123962,0.452759623528
1560051889241781235,-0.00355829484761,-0.0034205530495,-1.75042805495e-05,0.220444500446,-9.76533794403,0.492630809546
1560051889245696545,-0.00355829484761,-0.000688855103975,-1.75042805495e-05,0.240637689829,-9.7655172348,0.472250461578
1560051889249612093,-0.00355829484761,0.000297548455598,-0.000305510279129,0.200906440616,-9.74567890167,0.453072428703
1560051889253528595,-0.00355829484761,0.00175487168599,-0.00176283356268,0.20155107975,-9.76580429077,0.433268785477
1560051889257443905,-0.00355829484761,9.54246752372e-06,-1.75042805495e-05,0.220444500446,-9.76533794403,0.492630809546
1560051889261360407,-0.00506092133812,9.54246752372e-06,-1.75042805495e-05,0.220449760556,-9.74553585052,0.472563266754
1560051889265276909,-0.00530362408608,9.54246752372e-06,-1.75042805495e-05,0.180718481541,-9.7256975174,0.453385263681
1560051889269192219,-0.00357359418644,9.54246752372e-06,-1.75042805495e-05,0.220449760556,-9.74553585052,0.472563266754
1560051889273108721,-0.00181296560913,0.00447180553872,-0.00176283356268,0.220449760556,-9.74553585052,0.472563266754
1560051889277024269,-0.0020257252445,0.00328744139132,-1.75042805495e-05,0.240642994642,-9.74571418762,0.452182978392
1560051889280940533,-0.00475771010919,0.000555456438162,-1.75042805495e-05,0.20154581964,-9.78560829163,0.453336298466
1560051889284857035,-0.00530362408608,0.00175487168599,-1.75042805495e-05,0.220769450068,-9.76550006866,0.472695201635
1560051889288773537,-0.00530362408608,0.00461134991272,-1.75042805495e-05,0.221099644899,-9.74585819244,0.432692110538
1560051889292690039,-0.0028887417561,0.00283064790471,-1.75042805495e-05,0.220449760556,-9.74553585052,0.472563266754
1560051889296606302,-0.00181296560913,9.86802620253e-05,-1.75042805495e-05,0.240642994642,-9.74571418762,0.452182978392
1560051889300522804,-0.00355829484761,-0.000888658919288,-1.75042805495e-05,0.200251281261,-9.76515865326,0.513011157513
1560051889304439306,-0.00369786115517,-0.00173578679096,-0.000157070591598,0.220124810934,-9.74537372589,0.492498874664
1560051889308354378,-0.00530362408608,-0.000610261419083,-0.000637308175554,0.200906440616,-9.74567890167,0.453072428703
1560051889312270880,-0.00355829484761,0.000376700042795,-0.000384661869213,0.220449760556,-9.74553585052,0.472563266754
1560051889316187382,-0.00220425445073,0.000400831304639,-0.00176283356268,0.200581490993,-9.74551773071,0.473008036613
1560051889320103645,-0.00121721893115,9.54246752372e-06,-1.75042805495e-05,0.240962654352,-9.76567840576,0.452314913273
1560051889324019194,-0.00164977804848,9.54246752372e-06,-1.75042805495e-05,0.220444500446,-9.76533794403,0.492630809546
1560051889327935696,-0.00263646966572,0.000833046514668,-1.75042805495e-05,0.240318030119,-9.74555301666,0.472118556499
1560051889331851006,-0.00355829484761,0.00175487168599,-1.75042805495e-05,0.201226130128,-9.76564311981,0.453204363585
1560051889335768461,-0.00355829484761,0.00175487168599,-1.75042805495e-05,0.240312755108,-9.76535511017,0.492186069489
1560051889339684010,-0.00355829484761,9.54246752372e-06,-1.75042805495e-05,0.240962654352,-9.76567840576,0.452314913273
1560051889343599319,-0.00355829484761,9.54246752372e-06,-1.75042805495e-05,0.221094399691,-9.76566123962,0.452759623528
1560051889347515821,-0.00181296560913,0.00105081965932,-1.75042805495e-05,0.220444500446,-9.76533794403,0.492630809546
1560051889351431370,-0.00331975118719,0.00500698641793,-1.75042805495e-05,0.201226130128,-9.76564311981,0.453204363585
1560051889355347872,-0.00605224017258,0.00524553004652,-1.75042805495e-05,0.220764189959,-9.78530311584,0.492762714624
1560051889359264135,-0.00531343980071,0.00524553004652,-1.75042805495e-05,0.181357860565,-9.76562595367,0.453649103642
1560051889363180637,-0.00530362408608,0.00252360818085,-1.75042805495e-05,0.220449760556,-9.74553585052,0.472563266754
1560051889367097139,-0.00530362408608,0.00197328702744,-1.75042805495e-05,0.200581490993,-9.74551773071,0.473008036613
1560051889371012449,-0.00530362408608,0.00350020104088,-0.0012219077377,0.200901180506,-9.76548194885,0.473139941692
1560051889374928951,-0.00530362408608,0.00305388786818,-0.000463817434642,0.220774710178,-9.74569702148,0.452627718449
1560051889378845453,-0.00387057840056,0.000321826016893,-0.00032978784131,0.220449760556,-9.74553585052,0.472563266754
1560051889382760763,-0.00355829484761,-0.00173578679096,-1.75042805495e-05,0.200906440616,-9.74567890167,0.453072428703
1560051889386676311,-0.00355829484761,-7.54698420143e-05,-1.75042805495e-05,0.200901180506,-9.76548194885,0.473139941692
1560051889390591860,-0.00355829484761,9.54246752372e-06,-1.75042805495e-05,0.221099644899,-9.74585819244,0.432692110538
1560051889394508123,-0.00355829484761,9.54246752372e-06,-1.75042805495e-05,0.241287589073,-9.76583957672,0.432379305363
1560051889398423672,-0.00355829484761,9.54246752372e-06,-1.75042805495e-05,0.221419334412,-9.76582241058,0.43282404542
1560051889402340174,-0.00530362408608,0.000380000723424,-0.000387962549963,0.200901180506,-9.76548194885,0.473139941692
1560051889406255484,-0.00530362408608,0.00311138966959,-0.00176283356268,0.220769450068,-9.76550006866,0.472695201635
1560051889410170794,-0.00530362408608,0.00290334204648,-0.00116597459316,0.199936851859,-9.72539138794,0.492811709642
1560051889415688276,-0.00530362408608,0.000107638074889,-1.75042805495e-05,0.221094399691,-9.76566123962,0.452759623528
1560051889419605017,-0.00530362408608,-0.00173578679096,-1.75042805495e-05,0.239993095398,-9.74539089203,0.492054134607
1560051889423521996,-0.00188063767001,-0.00166811472931,-1.75042805495e-05,0.260181039572,-9.76537322998,0.491741329432
1560051889427438021,-0.00461201290701,0.00211697864452,-0.0010712223663,0.220769450068,-9.76550006866,0.472695201635
1560051889431355000,-0.00530362408608,0.006990859285,-0.00321308813268,0.240307509899,-9.78515911102,0.512253642082
1560051889435271025,-0.00530362408608,0.00570958755841,-0.000481561804041,0.201226130128,-9.76564311981,0.453204363585
1560051889439188004,-0.00704895332456,0.00123195426471,-1.75042805495e-05,0.240637689829,-9.7655172348,0.472250461578
1560051889443104744,-0.00704895332456,9.54246752372e-06,-1.75042805495e-05,0.220774710178,-9.74569702148,0.452627718449
1560051889447021723,-0.00455263172639,9.54246752372e-06,-0.00251382587228,0.220455020666,-9.72573280334,0.452495783567
1560051889450937748,-0.00355829484761,9.54246752372e-06,-0.00350816268474,0.220769450068,-9.76550006866,0.472695201635
1560051889454855680,-0.00355829484761,0.000989241939629,-0.000783134054837,0.200576230884,-9.76531982422,0.493075549603
1560051889458771706,-0.00530362408608,0.00350020104088,-1.75042805495e-05,0.200256541371,-9.74535560608,0.492943614721
1560051889462688684,-0.00530362408608,0.00350020104088,-1.75042805495e-05,0.221089139581,-9.78546524048,0.472827136517
1560051889466605425,-0.00355829484761,0.00305126879281,-0.000466436509905,0.220769450068,-9.76550006866,0.472695201635
1560051889470522404,-0.00499403087581,0.00175487168599,-0.00176283356268,0.220764189959,-9.78530311584,0.492762714624
1560051889474439383,-0.00530362408608,0.00350020104088,-0.00176283356268,0.200586751103,-9.72571468353,0.452940523624
1560051889478355408,-0.00363996385398,0.00183654069781,-9.91732889677e-05,0.201226130128,-9.76564311981,0.453204363585
1560051889482273340,-0.00446429651896,0.00175487168599,-1.75042805495e-05,0.200576230884,-9.76531982422,0.493075549603
1560051889486190319,-0.00530362408608,0.00160722431564,-1.75042805495e-05,0.201226130128,-9.76564311981,0.453204363585
1560051889490107536,-0.00416906861915,-0.00112501301241,-1.75042805495e-05,0.220449760556,-9.74553585052,0.472563266754
1560051889494023085,-0.00355829484761,-0.00173578679096,-1.75042805495e-05,0.220455020666,-9.72573280334,0.452495783567
1560051889497939110,-0.00355829484761,-0.00173578679096,-1.75042805495e-05,0.220455020666,-9.72573280334,0.452495783567
1560051889501856089,-0.00470078867612,-0.00173578679096,-0.00176283356268,0.220124810934,-9.74537372589,0.492498874664
1560051889505772114,-0.00514742282377,-0.000146658796581,-0.00176283356268,0.200906440616,-9.74567890167,0.453072428703
1560051889509689093,-0.00438879419621,9.54246752372e-06,-1.75042805495e-05,0.200586751103,-9.72571468353,0.452940523624
1560051889513604879,-0.0034866330523,-6.21193286081e-05,-1.75042805495e-05,0.220124810934,-9.74537372589,0.492498874664
1560051889517520905,-0.00181296560913,-0.00173578679096,-1.75042805495e-05,0.240312755108,-9.76535511017,0.492186069489
1560051889521437883,-0.00181296560913,9.54246752372e-06,-0.00176283356268,0.220444500446,-9.76533794403,0.492630809546
1560051889525354862,-0.00309889237459,9.54246752372e-06,-0.00176283356268,0.199606642127,-9.74503231049,0.532814860344
1560051889529270887,-0.00355829484761,9.54246752372e-06,-1.75042805495e-05,0.220119550824,-9.76517677307,0.512566447258
1560051889533187628,-0.00204466704674,9.54246752372e-06,-1.75042805495e-05,0.199931591749,-9.74519443512,0.512879252434
1560051889537103653,-6.76363852108e-05,9.54246752372e-06,-1.75042805495e-05,0.180707961321,-9.76530265808,0.49352028966
1560051889541019678,-0.00180864087658,-0.00173146205833,-1.75042805495e-05,0.201220870018,-9.78544712067,0.473271876574
1560051889544936657,-0.00454101922497,-0.000753062402327,-1.75042805495e-05,0.181038171053,-9.74566173553,0.453517198563
1560051889548852682,-0.00508057211365,-0.00021350950747,-1.75042805495e-05,0.200901180506,-9.76548194885,0.473139941692
1560051889552768469,-0.00113892132715,-0.00294547347554,-1.75042805495e-05,0.200906440616,-9.74567890167,0.453072428703
1560051889556684494,-0.000518065058913,-0.00348111591302,-1.75042805495e-05,0.199606642127,-9.74503231049,0.532814860344
1560051889560600519,-0.00181296560913,-0.00491768329134,-1.75042805495e-05,0.180707961321,-9.76530265808,0.49352028966
1560051889564517498,-0.00355829484761,-0.00348111591302,-1.75042805495e-05,0.220130071044,-9.72557163239,0.472431361675
1560051889568433523,-0.00355829484761,-0.00348111591302,-1.75042805495e-05,0.180383011699,-9.76514148712,0.513455867767
1560051889572349310,-0.00265295848069,-0.00264112309749,-1.75042805495e-05,0.179413422942,-9.74485397339,0.553195118904
1560051889576266289,-6.76363852108e-05,-0.00711875669041,-1.75042805495e-05,0.179408162832,-9.76465606689,0.573262691498
1560051889580183268,-0.00120136024384,-0.00985082772936,-1.75042805495e-05,0.19863705337,-9.72474479675,0.572554111481
1560051889584100246,-0.00218808112821,-0.0069717746228,-1.75042805495e-05,0.21946965158,-9.76485347748,0.552437603474
1560051889588016272,-0.00219688113506,-0.00833318833535,-1.75042805495e-05,0.179413422942,-9.74485397339,0.553195118904
1560051889591932058,-0.00355829484761,-0.0110648901852,-0.00176283356268,0.158900514245,-9.7247095108,0.57344353199
1560051889595848083,-0.00514683191635,-0.013796299407,-0.00176283356268,0.139026984572,-9.74449443817,0.593955814838
1560051889599763155,-0.00530362408608,-0.0182726033539,-1.75042805495e-05,0.129737481475,-9.7646112442,0.574374496937
1560051889603680134,-0.00530362408608,-0.0209344085306,-1.75042805495e-05,0.119148187339,-9.78408336639,0.634535551071
1560051889607595921,-0.00530362408608,-0.0209344085306,-1.75042805495e-05,0.120123036206,-9.78456783295,0.574728786945
1560051889611512899,-0.00530362408608,-0.0232752079735,-0.00146509814625,0.139032244682,-9.72469139099,0.573888301849
1560051889615428925,-0.00530362408608,-0.0287392395215,-1.75042805495e-05,0.119478397071,-9.76444149017,0.594532489777
1560051889619344950,-0.00477851127443,-0.0314063802361,-1.75042805495e-05,0.130057170987,-9.78457641602,0.574506402016
1560051889623260975,-0.00355829484761,-0.0329176049333,-1.75042805495e-05,0.100260019302,-9.76474666595,0.555106043816
1560051889627177715,-0.00256566691294,-0.0348970405757,-1.75042805495e-05,0.10122961551,-9.78503513336,0.515366792679
1560051889631093740,-0.00355829484761,-0.0331580329746,-0.00175651285318,0.100584968925,-9.76490783691,0.535170435905
1560051889635012627,-0.00355829484761,-0.0341334079025,-0.00350816268474,0.140635952353,-9.80471134186,0.554480433464
1560051889638929605,-0.00355829484761,-0.0368660014923,-0.0015392013057,0.139676883817,-9.74481773376,0.554084658623
1560051889642846584,-0.00234789156622,-0.0383877009153,-1.75042805495e-05,0.139351934195,-9.74465560913,0.574020206928
1560051889646762609,-0.00226405984473,-0.0396819352276,-0.000468598527426,0.139991313219,-9.78458499908,0.574284076691
1560051889650678396,-0.00355829484761,-0.0398247660882,-0.00176283356268,0.159214943647,-9.76447677612,0.593642950058
1560051889654594421,-0.00181296560913,-0.0425566617965,-0.00176283356268,0.178433313966,-9.76417160034,0.633069455624
1560051889658510447,-0.00347732224483,-0.0436236858368,-9.84768853537e-05,0.198301583529,-9.76418876648,0.632624745369
1560051889662427425,-0.00530362408608,-0.0445296866893,-1.75042805495e-05,0.197987154126,-9.72442150116,0.612425208092
1560051889666343451,-0.00530362408608,-0.0452218794723,-0.000164639034408,0.177468985319,-9.72408103943,0.652741193771
1560051889670260191,-0.00530362408608,-0.0447573509097,-0.00176283356268,0.197326734662,-9.76370334625,0.69243144989
1560051889674177170,-0.00143736290481,-0.0453690141439,-1.75042805495e-05,0.19701230526,-9.72393703461,0.672232031822
1560051889678094149,-6.76363852108e-05,-0.0453690141439,-1.75042805495e-05,0.196362406015,-9.72361373901,0.712103247643
1560051889682010174,-0.00241608825271,-0.0453690141439,-1.75042805495e-05,0.196362406015,-9.72361373901,0.712103247643
1560051889685927153,-0.00514816252521,-0.0469588843666,-1.75042805495e-05,0.197331994772,-9.74390125275,0.672363996506
1560051889689844131,-0.00530362408608,-0.0488596744835,-1.75042805495e-05,0.197331994772,-9.74390125275,0.672363996506
1560051889693761349,-0.00523027106816,-0.0523503348231,-1.75042805495e-05,0.217205524445,-9.72411632538,0.651851773262
1560051889697679043,-0.00461909347279,-0.0523503348231,-1.75042805495e-05,0.176824346185,-9.70395469666,0.672544836998
1560051889701595068,-0.00386007386904,-0.0506050027907,-1.75042805495e-05,0.158240094781,-9.7639913559,0.653449773788
1560051889705512047,-0.00401504423441,-0.0518935847052,-1.75042805495e-05,0.157925665379,-9.72422504425,0.633250355721
1560051889709429026,-0.00408823121162,-0.0563709275187,-1.75042805495e-05,0.158889994025,-9.76431465149,0.613578557968
1560051889713346004,-0.00530362408608,-0.0575863197446,-1.75042805495e-05,0.178443834186,-9.72456645966,0.592934370041
1560051889717262983,-0.00606233975364,-0.0593316480517,-1.75042805495e-05,0.17908321321,-9.76449489594,0.593198299408
1560051889721178770,-0.00879345136023,-0.0628206422613,-0.00176200235986,0.159859582782,-9.7846031189,0.573839306831
1560051889725095749,-0.00780806671551,-0.0645676404238,-0.000776617690491,0.159214943647,-9.76447677612,0.593642950058
1560051889729010820,-0.006822328598,-0.0643410148507,-1.75042805495e-05,0.129412531853,-9.76445007324,0.594310104847
1560051889732926846,-0.00530362408608,-0.0616095758644,-1.75042805495e-05,0.130057170987,-9.78457641602,0.574506402016
1560051889736842632,-0.00530362408608,-0.063276055141,-1.75042805495e-05,0.130701810122,-9.80470275879,0.554702758789
1560051889740759611,-0.00530362408608,-0.0660082472171,-1.75042805495e-05,0.130387380719,-9.76493453979,0.534503340721
1560051889744678497,-0.00530362408608,-0.0680582970381,-1.75042805495e-05,0.130051910877,-9.8043794632,0.594573974609
1560051889748593569,-0.00530362408608,-0.0680582970381,-1.75042805495e-05,0.120123036206,-9.78456783295,0.574728786945
1560051889752510548,-0.0043931326559,-0.0689687879824,-1.75042805495e-05,0.120123036206,-9.78456783295,0.574728786945
1560051889756427526,-0.00371048923547,-0.0718533422657,-1.75042805495e-05,0.12909284234,-9.7444858551,0.594178199768
1560051889760344505,-0.00530362408608,-0.076178725652,-1.75042805495e-05,0.0992851704359,-9.76426124573,0.614912748337
1560051889764260292,-0.00666902807865,-0.0789101993747,-1.75042805495e-05,0.0800668075681,-9.76456642151,0.575486302376
1560051889768177271,-0.00530362408608,-0.0802756026387,-0.00138426019037,0.128437682986,-9.76396465302,0.654116868973
1560051889772095203,-0.00530362408608,-0.0826297081725,-0.00350816268474,0.13870203495,-9.74433231354,0.613891363144
1560051889776012182,-0.00530362408608,-0.0853617790149,-0.00350816268474,0.13869677484,-9.76413536072,0.633958935738
1560051889779928207,-0.00446680472579,-0.0880937347811,-0.000926014181453,0.128442943096,-9.74416255951,0.634049355984
1560051889783844233,-0.00355829484761,-0.0890022441745,-1.75042805495e-05,0.118828497827,-9.76411819458,0.634403705597
1560051889787760973,-0.00355829484761,-0.0911316387487,-1.75042805495e-05,0.0989654809237,-9.74429702759,0.614780902863
1560051889791676998,-0.00355829484761,-0.0965941050243,-1.75042805495e-05,0.118514068425,-9.72435092926,0.61420416832
1560051889795594931,-0.00485103287442,-0.099474221468,-1.75042805495e-05,0.139666363597,-9.78442382812,0.594219684601
1560051889799511909,-0.00583817945921,-0.101754104863,-1.75042805495e-05,0.13869677484,-9.76413536072,0.633958935738
1560051889803427935,-0.00704895332456,-0.106006443169,-1.75042805495e-05,0.158889994025,-9.76431465149,0.613578557968
1560051889807343960,-0.00628748226129,-0.108200870454,-1.75042805495e-05,0.139351934195,-9.74465560913,0.574020206928
1560051889811259747,-0.00355629887085,-0.108198874479,-1.75042805495e-05,0.139676883817,-9.74481773376,0.554084658623
1560051889815175772,-0.000824660766735,-0.105467237824,-1.75042805495e-05,0.12909284234,-9.7444858551,0.594178199768
1560051889819093704,-0.00204366870953,-0.106686245124,-1.75042805495e-05,0.139351934195,-9.74465560913,0.574020206928
1560051889823009729,-0.00477521964071,-0.110634718742,-1.75042805495e-05,0.139666363597,-9.78442382812,0.594219684601
1560051889826925755,-0.00576152997282,-0.113894761018,-1.75042805495e-05,0.130387380719,-9.76493453979,0.534503340721
1560051889830842495,-0.00560435380903,-0.116626782428,-1.75042805495e-05,0.140641212463,-9.78490829468,0.53441286087
1560051889834758520,-0.00287293890305,-0.119358198802,-1.75042805495e-05,0.120128296316,-9.76476478577,0.554661273956
1560051889838675499,-0.000140794766189,-0.12209034602,-1.75042805495e-05,0.100584968925,-9.76490783691,0.535170435905
1560051889842608452,-6.76363852108e-05,-0.125759458164,-0.00176283356268,0.120128296316,-9.76476478577,0.554661273956
1560051889846509457,-0.000223157925641,-0.131356725175,-0.00191835509403,0.100584968925,-9.76490783691,0.535170435905
1560051889850425243,-0.00181296560913,-0.13726775033,-0.0023665575427,0.119478397071,-9.76444149017,0.594532489777
1560051889854341269,-0.00181296560913,-0.137871474028,-0.00138010150005,0.12077293545,-9.78489112854,0.53485763073
1560051889858257294,-0.00181296560913,-0.139240369093,-1.75042805495e-05,0.0803917571902,-9.76472854614,0.55555075407
1560051889862174273,-0.00355829484761,-0.143107458949,-1.75042805495e-05,0.0797418579459,-9.76440525055,0.595421910286
1560051889866090298,-0.00196150018573,-0.144704252759,-0.00161429898237,0.0406499579549,-9.78449630737,0.576507747173
1560051889870007038,-6.76363852108e-05,-0.148274083541,-0.00176283356268,0.0800668075681,-9.76456642151,0.575486302376
1560051889873924017,-6.76363852108e-05,-0.151913442068,-0.00176283356268,0.0797471180558,-9.74460220337,0.575354456902
1560051889877840996,-6.76363852108e-05,-0.154646134955,-0.00069614170523,0.0592236816883,-9.76406478882,0.635737895966
1560051889881757975,-0.000683733675358,-0.157994245753,-0.00176283356268,0.0592289417982,-9.74426174164,0.615670323372
1560051889885674953,-0.00355829484761,-0.163600989944,-0.00176283356268,0.0797471180558,-9.74460220337,0.575354456902
1560051889889590979,-0.00355829484761,-0.164587414934,-0.00176283356268,0.0794221684337,-9.74444103241,0.595290064812
1560051889893506765,-0.00355829484761,-0.168840918799,-0.000240744234709,0.0797418579459,-9.76440525055,0.595421910286
1560051889897423744,-0.00355829484761,-0.173541428287,-1.75042805495e-05,0.0201370399445,-9.76435279846,0.596756160259
1560051889901339769,-0.00356311656127,-0.172778055072,-0.00176283356268,0.0396908894181,-9.72460269928,0.576111972332
1560051889905256748,-0.00530362408608,-0.173769563846,-0.00176283356268,0.0592289417982,-9.74426174164,0.615670323372
1560051889909172773,-0.0050714238287,-0.17650091182,-0.00350816268474,0.0794221684337,-9.74444103241,0.595290064812
1560051889913089752,-0.00355829484761,-0.179233706941,-0.00350816268474,0.0598735809326,-9.76438808441,0.595866680145
1560051889917006493,-0.00355829484761,-0.186377564539,-0.00176283356268,0.0797471180558,-9.74460220337,0.575354456902
1560051889920922518,-0.00355829484761,-0.193125208043,-0.00176283356268,0.0605287402868,-9.74490833282,0.535928010941
1560051889924838543,-0.00424631726309,-0.194779315918,-0.00350816268474,0.0220814775676,-9.78512573242,0.497210115194
1560051889928754568,-0.00530362408608,-0.195396313742,-0.00350816268474,0.0412998571992,-9.78481960297,0.536636590958
1560051889932671547,-0.00172697187781,-0.20078931658,-0.00176283356268,0.0413051173091,-9.76501655579,0.516569018364
1560051889936587334,-0.000223822786122,-0.206095494128,-0.000173690686669,0.101554565132,-9.78519630432,0.495431154966
1560051889940504313,-0.00410004103146,-0.20882818298,-0.00404990890873,0.12077293545,-9.78489112854,0.53485763073
1560051889944420338,-0.00491939542071,-0.211559536092,-0.0044850346181,0.101234875619,-9.76523113251,0.495299249887
1560051889948337317,-0.00355829484761,-0.215662748755,-0.000391776388503,0.0810416564345,-9.76505184174,0.515679597855
1560051889952253342,-0.00355829484761,-0.220513986377,-1.75042805495e-05,0.0807167068124,-9.7648897171,0.535615205765
1560051889956169128,-0.00196017046476,-0.224843524535,-0.00161562870337,0.0605287402868,-9.74490833282,0.535928010941
1560051889960085154,-0.00265178164384,-0.22856089357,-1.75042805495e-05,0.0595591515303,-9.72462081909,0.575667262077
