#timestamp [ns],w_RS_S_x [rad s^-1],w_RS_S_y [rad s^-1],w_RS_S_z [rad s^-1],a_RS_S_x [m s^-2],a_RS_S_y [m s^-2],a_RS_S_z [m s^-2]1560000122917758226,0.0,0.0,0.0,0.0807377323508,-9.68567848206,0.455345094204
1560000122921672344,-0.00489793849615,-0.188486024737,-0.00350816268474,-0.0355578511953,-9.7266330719,0.318728208542
1560000122925586700,-0.00355829484761,-0.187095481626,-0.00211761892437,0.103362821043,-9.70687294006,0.305515348911
1560000122929503679,-0.00181296560913,-0.189117695485,-1.75042805495e-05,0.182987868786,-9.74663162231,0.333903610706
1560000122933417082,-0.00181296560913,-0.191847157667,-1.75042805495e-05,0.142926380038,-9.74643325806,0.35472869873
1560000122937329054,-0.00266675901463,-0.192830474302,-0.000871297707406,0.0442401841283,-9.72686576843,0.297013670206
1560000122941244125,-0.00530362408608,-0.195749163283,-0.00341422086848,0.0653924643993,-9.7869386673,0.27702909708
1560000122945161343,-0.00530362408608,-0.202863952527,-0.00176283356268,0.164099693298,-9.72729587555,0.254474043846
1560000122949074507,-0.00323908786859,-0.205939307809,-0.00208204052041,0.143592014909,-9.68734836578,0.254654943943
1560000122952987909,-0.00181296560913,-0.205939307809,-0.00350816268474,0.104804046452,-9.78681278229,0.296075224876
1560000122956902742,-0.00181296560913,-0.20822750935,-0.00471062303423,0.134281516075,-9.78667736053,0.3153437078
1560000122960818052,-0.00181296560913,-0.212486881432,-0.00197971091719,0.242288738489,-9.66730976105,0.272234916687
1560000122964732170,-0.00181296560913,-0.212920635939,-0.000784930416026,0.303827494383,-9.7277431488,0.211489707232
1560000122968646288,-0.00181296560913,-0.214679930113,-0.00176283356268,0.133322447538,-9.72678375244,0.314947962761
1560000122972560644,-0.00181296560913,-0.219148295675,-0.000771158193989,-0.0352539420128,-9.80600643158,0.37906268239
1560000122976474524,-0.00158226181301,-0.219901949167,-1.75042805495e-05,0.0849200263619,-9.84620380402,0.356722533703
1560000122980389833,-6.76363852108e-05,-0.221118259013,-0.00123381480568,0.281857550144,-9.68706893921,0.301380753517
1560000122984304905,0.00167769286782,-0.223848523326,-0.00350816268474,0.421082139015,-9.74668216705,0.348502337933
1560000122988219023,0.000237106133516,-0.226578520042,-0.00206757605854,0.220465511084,-9.68612670898,0.412360727787
1560000122992132425,-6.76363852108e-05,-0.22552478728,-0.00176283356268,0.101575605571,-9.7059841156,0.41516110301
1560000122996046305,0.00159605499228,-0.22006522483,-0.00176283356268,0.131383255124,-9.6862077713,0.394426465034
1560000122999962568,0.000773021797783,-0.21815662086,-0.00176283356268,0.162464439869,-9.76609230042,0.39428704977
1560000123003876686,-6.76363852108e-05,-0.221934367288,-0.00176283356268,0.140987187624,-9.70585727692,0.434207201004
1560000123007788897,-6.76363852108e-05,-0.227391998683,-0.000635800635932,0.10122961551,-9.78503513336,0.515366792679
1560000123011705160,-6.76363852108e-05,-0.232855417569,-1.75042805495e-05,0.140332043171,-9.72533798218,0.494145900011
1560000123015619040,-6.76363852108e-05,-0.234257801873,-1.75042805495e-05,0.177985325456,-9.61540699005,0.512466430664
1560000123019533396,0.00108594013805,-0.233864575624,-0.00176283356268,0.176350057125,-9.65420436859,0.652279496193
1560000123023447514,-6.76363852108e-05,-0.233864575624,-0.00176283356268,0.255652755499,-9.68389892578,0.690569519997
1560000123027361631,-6.76363852108e-05,-0.233864575624,-0.000947049524261,0.275851249695,-9.66427516937,0.650121748447
1560000123031276941,-6.76363852108e-05,-0.233864575624,-0.00176283356268,0.236285060644,-9.63461494446,0.61094212532
1560000123035190821,-6.76363852108e-05,-0.233864575624,-0.00176283356268,0.17650988698,-9.66418647766,0.65234541893
1560000123039104223,0.00167769286782,-0.235609903932,-0.00176283356268,0.127148404717,-9.72371292114,0.693724215031
1560000123043018341,0.00167769286782,-0.236873366312,-0.00176283356268,0.115437559783,-9.68320941925,0.763457298279
1560000123046933413,-6.76363852108e-05,-0.239603898287,-0.00125951044207,0.195248737931,-9.63393306732,0.69157397747
1560000123050847769,-0.00155577180029,-0.240845903754,-1.75042805495e-05,0.414273947477,-9.68387985229,0.706947267056
1560000123054761648,-0.00181296560913,-0.240845903754,-1.75042805495e-05,0.433324605227,-9.70329666138,0.776409029961
1560000123058676004,-0.00181296560913,-0.237422073965,-1.75042805495e-05,0.254835158587,-9.70329761505,0.760476112366
1560000123062590122,-0.00181296560913,-0.232913183125,-1.75042805495e-05,0.135955706239,-9.68354988098,0.723141431808
1560000123066503286,-0.00181296560913,-0.23037391901,-1.75042805495e-05,0.127164170146,-9.6643037796,0.633521676064
1560000123070418358,-0.00298804532562,-0.2315489981,-0.00119258402643,0.276155143976,-9.74364948273,0.710456192493
1560000123074332476,-0.00355829484761,-0.232533883409,-0.00134819723963,0.35466915369,-9.68382644653,0.708281517029
1560000123078247786,-0.00355829484761,-0.233864575624,-1.75042805495e-05,0.317191511393,-9.74433135986,0.629824399948
1560000123082161903,-0.00530362408608,-0.231480108381,-0.00176283356268,0.19864231348,-9.70494174957,0.552486538887
1560000123086075068,-0.00530362408608,-0.228750667034,-0.000139580680117,0.129087582231,-9.76428794861,0.614245653152
1560000123089990139,-0.0026951103905,-0.230354958696,-1.75042805495e-05,0.13869151473,-9.7839384079,0.654026448727
1560000123093904257,-0.00171055333602,-0.232016835098,-0.00011991655708,0.158261120319,-9.68478012085,0.573179721832
1560000123097818613,-6.76363852108e-05,-0.229286768746,-0.00176283356268,0.15953463316,-9.78444194794,0.593774914742
1560000123101732731,-6.76363852108e-05,-0.226556917928,-0.000343848930446,0.158911019564,-9.68510341644,0.533308506012
1560000123105646610,-6.76363852108e-05,-0.223827026163,-0.00176283356268,0.17909899354,-9.70508575439,0.532995700836
1560000123109560966,-0.00181296560913,-0.219901949167,-0.00350816268474,0.238363057375,-9.76438522339,0.61179959774
1560000123113475084,-0.00181296560913,-0.219901949167,-0.00350816268474,0.278115361929,-9.70501327515,0.550707578659
1560000123117388248,-6.76363852108e-05,-0.219901949167,-0.00350816268474,0.198977768421,-9.66549682617,0.492415934801
1560000123121300459,-7.87795867209e-05,-0.219901949167,-0.00349701948388,0.131980597973,-9.88456249237,0.555230498314
1560000123125216484,-0.00281024928005,-0.219901949167,-0.00176283356268,0.137098297477,-9.66431236267,0.633299291134
1560000123129130840,-0.00157603215279,-0.220138882499,-0.00199976700519,0.218479022384,-9.82377815247,0.672446966171
1560000123133044958,-6.76363852108e-05,-0.222868408573,-0.00350816268474,0.336734831333,-9.74418735504,0.649315237999
1560000123136959076,-6.76363852108e-05,-0.225137934089,-0.00350816268474,0.29686999321,-9.61535072327,0.529733657837
1560000123140872240,-0.00151185189464,-0.223693719338,-0.0020639472596,0.177474245429,-9.70427799225,0.632673680782
1560000123144785404,-6.76363852108e-05,-0.218535881842,-0.00176283356268,0.135950475931,-9.70335292816,0.743208885193
1560000123148698568,-6.76363852108e-05,-0.218078451768,-0.00176283356268,0.0952732563019,-9.57411289215,0.673466324806
1560000123152613878,-6.76363852108e-05,-0.220809207174,-1.75042805495e-05,0.135311067104,-9.66342353821,0.742945075035
1560000123156528711,-0.0019599896806,-0.221794301467,-0.00190985762434,0.21509334445,-9.72306632996,0.781433105469
1560000123160442829,-0.00355829484761,-0.224524400294,-0.00350816268474,0.233533501625,-9.59363555908,0.740259647369
1560000123164357185,-0.00318737315906,-0.224767012598,-0.00176283356268,0.234966903925,-9.70327949524,0.760920763016
1560000123168271303,-0.00181296560913,-0.222036975403,-0.00176283356268,0.154849141836,-9.68308353424,0.78250348568
1560000123172186613,-0.00240898449961,-0.222243296047,-0.00176283356268,0.174237877131,-9.65315437317,0.7818608284
1560000123176100492,-0.00513835172569,-0.223392605782,-0.00334289033537,0.193796977401,-9.59360027313,0.741149067879
1560000123180013657,-0.00612250086448,-0.225137934089,-0.00176283356268,0.255008131266,-9.66377258301,0.710373282433
1560000123183928967,-0.00698976143068,-0.226883262396,-0.00170364166732,0.335445553064,-9.70393466949,0.688922524452
1560000123187843084,-0.00530362408608,-0.226883262396,-1.75042805495e-05,0.276799827814,-9.76377487183,0.690652489662
1560000123191757441,-0.00530362408608,-0.226883262396,-1.75042805495e-05,0.179748892784,-9.70540904999,0.493124514818
1560000123195670366,-0.00530362408608,-0.226883262396,-0.00128446050099,0.0397013947368,-9.68499660492,0.535976946354
1560000123199584484,-0.00580953351629,-0.229134499863,-0.00125692411982,0.000604240223765,-9.72489070892,0.537130236626
1560000123203498840,-0.00704895332456,-0.231864757975,-1.75042805495e-05,0.132316052914,-9.84511756897,0.495159834623
1560000123207413912,-0.00631853204797,-0.234594996511,0.00172782491427,0.141642332077,-9.686378479,0.374268501997
1560000123211328030,-0.00358839767588,-0.235609903932,1.25985469668e-05,0.164398357272,-9.82647228241,0.334876060486
1560000123215241194,-0.00181296560913,-0.235609903932,-1.75042805495e-05,0.143738746643,-9.74683761597,0.304889708757
1560000123219156265,-6.76363852108e-05,-0.239100575447,-1.75042805495e-05,0.0442138835788,-9.82588005066,0.397351264954
1560000123223070621,-6.76363852108e-05,-0.240279257857,-1.75042805495e-05,0.00447208993137,-9.84564876556,0.418308258057
1560000123226984501,0.000349859028043,-0.241263398941,-0.00218032894461,0.0442296639085,-9.76647090912,0.337148725986
1560000123230898857,0.00167769286782,-0.243993579357,-0.00350816268474,0.0842911526561,-9.76666736603,0.316323637962
1560000123234812975,0.00167769286782,-0.248468701076,-0.00176283356268,0.0640769004822,-9.84570217133,0.416974037886
1560000123238728046,0.00330447169104,-0.251199309356,-0.000136054698764,0.0810521766543,-9.72544670105,0.475544512272
1560000123242642403,0.00516835134476,-0.255674967258,-0.000883934307608,0.0996259003878,-9.70501422882,0.534774661064
1560000123246556282,0.00342302210629,-0.258404322681,-0.00176283356268,0.0787880346179,-9.68470859528,0.57495868206
1560000123250470638,0.00342302210629,-0.260044515133,-0.000672709667272,0.01821362786,-9.66436767578,0.616032123566
1560000123254384756,0.00342302210629,-0.260044515133,-0.00176283356268,0.0172335188836,-9.68368625641,0.695906400681
1560000123258298874,0.00210866059747,-0.262673236748,-0.00176283356268,0.0958942249417,-9.68335342407,0.743966460228
1560000123262213230,0.00112423522299,-0.265833967575,-0.00350816268474,0.113983161747,-9.65277767181,0.823066234589
1560000123266126156,-6.76363852108e-05,-0.268563254148,-0.00197074930603,0.113818071783,-9.66259765625,0.843067765236
1560000123270041227,-6.76363852108e-05,-0.271293764034,-1.75042805495e-05,0.0938057228923,-9.59318828583,0.783244013786
1560000123273955584,-6.76363852108e-05,-0.272261828184,-1.75042805495e-05,0.113668732345,-9.61300945282,0.802866816521
1560000123277869701,-0.0010688635744,-0.273263046299,-1.75042805495e-05,0.113668732345,-9.61300945282,0.802866816521
1560000123281783819,-0.00205336800783,-0.276233289339,-1.75042805495e-05,0.0732823014259,-9.6126499176,0.84362745285
1560000123285698891,-0.00355829484761,-0.280468857458,-1.75042805495e-05,0.0341904014349,-9.63274097443,0.824713230133
1560000123289613008,-0.00530362408608,-0.280988484621,-0.00176283356268,0.11431337148,-9.63313579559,0.783063054085
1560000123293529272,-0.00675468452152,-0.282439531893,-0.000311773090949,0.175705417991,-9.63407802582,0.67208313942
1560000123297443390,-0.00879428256303,-0.28516975223,-0.00107221628594,0.236429154873,-9.70400714874,0.671210646629
1560000123301356792,-0.00879428256303,-0.286224454641,-0.00169183637264,0.178129374981,-9.68479824066,0.572734951973
1560000123305269718,-0.00962662722316,-0.281820821731,-1.75042805495e-05,0.0400263443589,-9.68515872955,0.516041398048
1560000123309182882,-0.00704895332456,-0.281140287025,-0.000169308065619,0.00254341773689,-9.76546573639,0.457651734352
1560000123313098192,-0.00704895332456,-0.285008562898,-0.00290021652935,0.122722633183,-9.78586101532,0.415244042873
1560000123317013264,-0.00742601660964,-0.288723924017,-0.00138577026816,0.163748458028,-9.82614898682,0.374747216702
1560000123320926428,-0.00879428256303,-0.292821672733,-1.75042805495e-05,0.183297038078,-9.80620193481,0.374170571566
1560000123324840546,-0.00644888708387,-0.297296495528,-1.75042805495e-05,0.163428768516,-9.806183815,0.374615311623
1560000123328754663,-0.00371879071374,-0.298441767693,-0.00160233769253,0.133631616831,-9.78635406494,0.355214893818
1560000123332669973,-0.00438321715552,-0.298441767693,-0.00176283356268,0.143246069551,-9.7663974762,0.354860603809
1560000123336584091,-0.00530362408608,-0.300187081099,-1.75042805495e-05,0.162469699979,-9.74629020691,0.374219536781
1560000123340497017,-0.00320803110923,-0.300187081099,-1.75042805495e-05,0.133626356721,-9.80615711212,0.375282406807
1560000123344410419,-6.76363852108e-05,-0.302219012854,-1.75042805495e-05,0.0627876073122,-9.8054485321,0.456581383944
1560000123348324537,-6.76363852108e-05,-0.304949088103,-1.75042805495e-05,0.101570345461,-9.72578716278,0.435228615999
1560000123352238655,-6.76363852108e-05,-0.305933442236,-1.75042805495e-05,0.130722850561,-9.72549152374,0.474432677031
1560000123356154680,-6.76363852108e-05,-0.308664715729,-1.75042805495e-05,0.158245354891,-9.74418926239,0.633382260799
1560000123360067844,-6.76363852108e-05,-0.311394342903,-1.75042805495e-05,0.136293828487,-9.63420295715,0.653037071228
1560000123363982201,-6.76363852108e-05,-0.31240439415,-1.75042805495e-05,0.127803564072,-9.70423316956,0.633785486221
1560000123367897272,0.00089214485036,-0.31336418306,-1.75042805495e-05,0.136293828487,-9.63420295715,0.653037071228
1560000123371810436,0.00147973816045,-0.314149737358,-0.00176283356268,0.126354426146,-9.65399837494,0.673326849937
1560000123375725508,-6.76363852108e-05,-0.312966282018,-0.00176283356268,0.12472704798,-9.66309165955,0.78303861618
1560000123379639626,-0.000490711679799,-0.312827472834,-0.00176283356268,0.134330958128,-9.68274211884,0.82281935215
1560000123383554935,-0.00181296560913,-0.315558363785,-0.00176283356268,0.154529452324,-9.66311836243,0.782371520996
1560000123387469053,-0.00181296560913,-0.3169928316,-1.75042805495e-05,0.213329777122,-9.63306236267,0.800775051117
1560000123391383410,-0.00507807801476,-0.314262509371,-0.0016500605242,0.23385322094,-9.6136007309,0.740391612053
1560000123395297289,-0.00530362408608,-0.313278063655,-0.00350816268474,0.233192801476,-9.65288352966,0.820397853851
1560000123399212599,-0.00530362408608,-0.31240439415,-0.003396451151,0.193456247449,-9.65284824371,0.821287274361
1560000123403126717,-0.00530362408608,-0.31240439415,-0.000666596156716,0.175212725997,-9.65363883972,0.722054004669
1560000123407040834,-0.0073844142033,-0.31240439415,-1.75042805495e-05,0.197992414236,-9.70461845398,0.592357754707
1560000123410955191,-0.00879428256303,-0.31240439415,-1.75042805495e-05,0.198951482773,-9.76451206207,0.592753529549
1560000123414870024,-0.00879428256303,-0.309539554886,-0.000577267521923,0.217546224594,-9.6648683548,0.57171356678
1560000123418784380,-0.0103389439649,-0.302534429209,-0.00176283356268,0.279729604721,-9.74542713165,0.491164654493
1560000123422698498,-0.00975539388894,-0.300187081099,-1.75042805495e-05,0.300567477942,-9.76573181152,0.4509806633
1560000123426613569,-0.00702451442811,-0.300187081099,-1.75042805495e-05,0.400239050388,-9.74617958069,0.408753871918
1560000123430527925,-0.00631237972544,-0.300187081099,-1.75042805495e-05,0.361786514521,-9.80619907379,0.390103518963
1560000123434441805,-0.00704895332456,-0.298441767693,-1.75042805495e-05,0.342887818813,-9.82647037506,0.350809007883
1560000123438356161,-0.00581651596141,-0.295976894282,-1.75042805495e-05,0.322710365057,-9.76688098907,0.310986787081
1560000123442270279,-0.00308630135775,-0.294007124602,-1.75042805495e-05,0.323989152908,-9.84674072266,0.311514496803
1560000123446184397,-0.000356223506842,-0.291460454464,-1.75042805495e-05,0.3422537148,-9.76673793793,0.330477654934
1560000123450098515,-6.76363852108e-05,-0.291460454464,0.00172782491427,0.3614615798,-9.80603790283,0.410039126873
1560000123454012632,-6.76363852108e-05,-0.293140929087,4.73350889431e-05,0.399589151144,-9.7458562851,0.448625057936
1560000123457925797,-6.76363852108e-05,-0.292286708689,-1.75042805495e-05,0.338689774275,-9.72535514832,0.509634137154
1560000123461840153,9.08636953531e-05,-0.289556612614,-1.75042805495e-05,0.276820838451,-9.68456363678,0.610382437706
1560000123465753078,0.00167769286782,-0.284542480425,-0.00115994080916,0.215910986066,-9.70366668701,0.711526572704
1560000123469667196,0.00129629192732,-0.280225676641,-0.00176283356268,0.253726750612,-9.59381484985,0.719879329205
1560000123473582506,-6.76363852108e-05,-0.276130874587,-0.000395897510765,0.253071576357,-9.61329555511,0.779818058014
1560000123477496624,-0.00241945845089,-0.272868315524,-1.75042805495e-05,0.291838526726,-9.59304237366,0.818667769432
1560000123481410980,-0.00355829484761,-0.27400714159,-1.75042805495e-05,0.27132037282,-9.59270191193,0.858983755112
1560000123485324860,-0.00355829484761,-0.274922374326,-1.75042805495e-05,0.231578588486,-9.61246871948,0.879940748215
1560000123489238977,-0.00362795480248,-0.270446825653,-1.75042805495e-05,0.270990133286,-9.61234378815,0.898986816406
1560000123493153334,-0.00635760578169,-0.267717181438,-1.75042805495e-05,0.370976150036,-9.63255786896,0.876959443092
1560000123497066498,-0.00908708276418,-0.266733030816,-1.75042805495e-05,0.431380182505,-9.68252372742,0.875955104828
1560000123500981808,-0.0118179234197,-0.264002193106,-1.75042805495e-05,0.433004915714,-9.68333244324,0.776277065277
1560000123504894733,-0.01228494104,-0.259527970512,-0.000534053600586,0.414604157209,-9.66423797607,0.666944146156
1560000123508808851,-0.01228494104,-0.255296565007,-0.00176283356268,0.358547538519,-9.76497745514,0.549324393272
1560000123512723207,-0.01228494104,-0.249095829208,-1.75042805495e-05,0.338055670261,-9.66562175751,0.489302754402
1560000123516638279,-0.01228494104,-0.2426301354,-1.75042805495e-05,0.341603815556,-9.76641464233,0.37034881115
1560000123520551205,-0.01228494104,-0.23813626224,-1.75042805495e-05,0.402497887611,-9.80671977997,0.329407274723
1560000123524465561,-0.01228494104,-0.237151494048,-0.000221242584693,0.404447585344,-9.80768966675,0.209793716669
1560000123528379679,-0.01228494104,-0.233232918919,-0.00176283356268,0.466300785542,-9.9078912735,0.169247925282
1560000123532294035,-0.0101119704672,-0.228200949597,-0.00133519221771,0.547068476677,-9.92841148376,0.107794135809
1560000123536207914,-0.00879428256303,-0.225471106073,-0.00142966139202,0.507358133793,-9.82936000824,0.00834600627422
1560000123540122032,-0.00944599620283,-0.222089179197,-0.00176283356268,0.487793773413,-9.90871715546,0.0691252201796
1560000123544035435,-0.0105396118015,-0.218266680559,-0.00339810293395,0.367305368185,-9.82875061035,0.071265950799
1560000123547949553,-0.00529930071581,-0.212045810101,-0.00176283356268,0.365360975266,-9.80797767639,0.170811995864
1560000123551864862,0.000161547664286,-0.209086202457,-0.00176283356268,0.503458738327,-9.82742118835,0.247573137283
1560000123555779696,0.00562276630827,-0.201994236474,-0.00176283356268,0.610139906406,-9.80642127991,0.384544312954
1560000123559693813,0.00725303605473,-0.194788627385,-1.75042805495e-05,0.648267507553,-9.74623966217,0.423130244017
1560000123563609123,0.00998389003323,-0.189326922343,-1.75042805495e-05,0.566519737244,-9.74503803253,0.564458370209
1560000123567523241,0.011585736248,-0.183303568059,-1.75042805495e-05,0.53381383419,-9.6643447876,0.664275765419
1560000123571437597,0.00885544915729,-0.175112701071,-0.00156639422219,0.472261935472,-9.6534204483,0.775189757347
1560000123575351477,0.00787139189081,-0.171990437561,-0.00255045144105,0.489216178656,-9.61237716675,0.914030313492
1560000123579264641,0.00516835134476,-0.169234524218,-0.00173639642819,0.527663469315,-9.57216072083,0.952748179436
1560000123583178997,0.00516835134476,-0.163774330072,-1.75042805495e-05,0.536303043365,-9.55171966553,1.01220071316
1560000123587093115,0.00317254851012,-0.160310283459,-1.75042805495e-05,0.574750363827,-9.51150226593,1.05091845989
1560000123591006994,0.000442644446435,-0.155110285358,-0.00125255272252,0.633385539055,-9.49126720428,1.08932352066
1560000123594920397,-0.000541670670072,-0.14866667007,-0.00128879926201,0.575064778328,-9.55127048492,1.07111799717
1560000123598834515,-0.00327117506123,-0.143394578582,-1.75042805495e-05,0.525084853172,-9.49165534973,1.03196287155
1560000123602748871,-0.00425622697065,-0.139616802335,-1.75042805495e-05,0.48728749156,-9.53219604492,0.953373789787
1560000123606661797,-0.00698558088807,-0.136252890526,-1.75042805495e-05,0.428652316332,-9.55243015289,0.914968729019
1560000123610575914,-0.0114604112661,-0.129048562853,-0.00176283356268,0.450768947601,-9.65259361267,0.875312447548
1560000123614489079,-0.01228494104,-0.127559107589,-1.75042805495e-05,0.432360291481,-9.66320514679,0.796080827713
1560000123618403435,-0.01228494104,-0.129144832492,-1.75042805495e-05,0.435101300478,-9.7437915802,0.706898331642
1560000123622317314,-0.0144135209928,-0.124504408833,0.00172782491427,0.43672606349,-9.74459934235,0.607220292091
1560000123626231670,-0.0171437214947,-0.116313805868,0.00172782491427,0.437711417675,-9.70547866821,0.507278561592
1560000123630145788,-0.0175209287554,-0.110477212945,-1.75042805495e-05,0.360827416182,-9.7463054657,0.389707744122
1560000123634059906,-0.015928957494,-0.10501693133,-1.75042805495e-05,0.281359642744,-9.72643280029,0.37141919136
1560000123637972116,-0.0157755985856,-0.10471021384,-1.75042805495e-05,0.323994427919,-9.82693767548,0.291446954012
1560000123641886234,-0.017451927416,-0.106386540881,-1.75042805495e-05,0.324969261885,-9.82742214203,0.231640189886
1560000123645800352,-0.0136683643417,-0.10154935882,-1.75042805495e-05,0.345487415791,-9.82776355743,0.191324263811
1560000123649714708,-0.00675590330634,-0.091320707541,-1.75042805495e-05,0.326897919178,-9.9076051712,0.192296683788
1560000123653628588,-0.00530362408608,-0.0804011344992,-1.75042805495e-05,0.247739285231,-9.94730186462,0.214275091887
1560000123657541752,-0.00478765976562,-0.0750396102667,-0.000533468613921,0.227236896753,-9.88755130768,0.194388449192
1560000123661456108,-0.00205752471916,-0.0735388409391,-0.00326360359103,0.306390285492,-9.86765766144,0.192477583885
1560000123665369034,-6.76363852108e-05,-0.0683246346351,-0.00276866698439,0.304126143456,-9.82691955566,0.291891694069
1560000123669284344,-6.76363852108e-05,-0.0611393304181,-0.00176283356268,0.322385430336,-9.76671981812,0.330922365189
1560000123673198462,-6.76363852108e-05,-0.0566222902663,-0.00350816268474,0.381015390158,-9.76628780365,0.389394938946
1560000123677112579,-6.76363852108e-05,-0.0540956631303,-0.00330464928082,0.439650595188,-9.74605369568,0.427799999714
1560000123681026936,0.00112069811035,-0.0517189928908,-0.00295116796907,0.458224356174,-9.72562217712,0.487030088902
1560000123684940815,0.00385029381726,-0.0458325308155,-0.00350816268474,0.358233124018,-9.72521018982,0.529124975204
1560000123688122034,0.00516835134476,-0.0380566998701,-0.00478204834465,0.357902884483,-9.74485111237,0.569128096104
1560000123692034721,0.00516835134476,-0.0318505339499,-0.00525349192321,0.415254056454,-9.66456127167,0.627072930336
1560000123695948124,0.00680343385292,-0.0263908905203,-0.00525349192321,0.514579713345,-9.72405910492,0.68505179882
1560000123699860811,0.00691368058324,-0.0226777423001,-0.00612715427692,0.641627073288,-9.66371440887,0.751539826393
1560000123703773499,0.00680139498749,-0.0207098373391,-0.00699882116169,0.681209087372,-9.63396453857,0.730516910553
1560000123707686901,0.00407136809651,-0.01634676622,-0.00590183791343,0.540511667728,-9.61322975159,0.813240528107
1560000123711599588,-6.76363852108e-05,-0.0094563584204,-0.00525349192321,0.510703980923,-9.63300514221,0.833975076675
1560000123715513229,-0.00138777402744,-0.00390630755498,-0.00525349192321,0.490840941668,-9.61318588257,0.81435239315
1560000123719426870,-0.00237268143251,-0.00348111591302,-0.00525349192321,0.491160660982,-9.63315010071,0.814484238625
1560000123723340273,-0.00355829484761,-0.00193673608212,-0.00525349192321,0.512003779411,-9.6336517334,0.754232764244
1560000123727253914,-0.00355829484761,0.000792912115355,-0.00525349192321,0.531872034073,-9.63366985321,0.753787994385
1560000123731167555,-0.00532673760243,0.00529175707922,-0.00525349192321,0.493105024099,-9.65392303467,0.714938223362
1560000123735080004,-0.00805586137282,0.01075000462,-0.00424658387495,0.494897574186,-9.63500881195,0.585224986076
1560000123738993645,-0.0105396118015,0.0144643809534,-0.0032620603439,0.515410423279,-9.65515232086,0.564976513386
1560000123742906332,-0.00930946401061,0.0174628347158,-0.00176283356268,0.566210627556,-9.68546772003,0.524191379547
1560000123746819735,-0.00657968372856,0.0184013739078,-0.000486773888285,0.477767676115,-9.72547912598,0.506520986557
1560000123750733376,-0.00675762200464,0.0224074903355,-0.00321683138425,0.320765972137,-9.74610900879,0.410532832146
1560000123754647017,-0.00948745754147,0.0258305016266,-0.00176283356268,0.281679302454,-9.74639701843,0.371551096439
1560000123758559465,-0.00886262575757,0.0296117952958,-0.00176283356268,0.302511900663,-9.78650474548,0.351434648037
1560000123762473106,-0.0078778061825,0.0340872765476,-0.00350816268474,0.363405972719,-9.82681083679,0.310493081808
1560000123766384840,-0.00530362408608,0.0331708006561,-0.00176283356268,0.343542993069,-9.80699062347,0.290870308876
1560000123770298243,-0.00416490305291,0.0331708006561,-0.00176283356268,0.323679983616,-9.78716945648,0.271247506142
1560000123774211884,-0.00355829484761,0.0335490996575,-0.0013845343499,0.224983260036,-9.80720710754,0.253667533398
1560000123778125525,-0.00355829484761,0.0362786693274,-1.75042805495e-05,0.205445200205,-9.78754806519,0.214109167457
1560000123782037973,-0.00121211456483,0.0390076400315,-1.75042805495e-05,0.205109730363,-9.82699203491,0.274179786444
1560000123785951614,-6.76363852108e-05,0.038565985079,-0.00160363769753,0.205104485154,-9.84679603577,0.294247329235
1560000123789865255,-6.76363852108e-05,0.0358363508411,-0.00258794037725,0.144378125668,-9.78676700592,0.305153548717
1560000123793778896,-6.76363852108e-05,0.0349808132969,-0.00350816268474,0.133311927319,-9.76638889313,0.355082988739
1560000123797691345,0.000980459064649,0.0377095543893,-0.00350816268474,0.131367489696,-9.74561691284,0.454629033804
1560000123801604986,0.00196553216847,0.0381189495414,-0.00350816268474,0.1390427351,-9.68508529663,0.533753275871
1560000123805517673,0.00215112136376,0.0353895572066,-0.00350816268474,0.136948987842,-9.61472415924,0.593098282814
1560000123809431076,0.00116667001176,0.0354271515423,-0.00350816268474,0.134197428823,-9.57374382019,0.722415804863
1560000123813343763,-6.76363852108e-05,0.0381565296404,-0.00350816268474,0.172639429569,-9.55333137512,0.781201243401
1560000123817257404,-6.76363852108e-05,0.0376725257312,-0.00525349192321,0.151476621628,-9.53286266327,0.841320753098
1560000123821170807,-0.00350508356504,0.0366614572704,-0.00525349192321,0.150831967592,-9.51273727417,0.861124396324
1560000123825083494,-0.00626126017083,0.0393644248766,-0.00525349192321,0.190558001399,-9.55237865448,0.900370001793
1560000123828996181,-0.0072455019076,0.0436427742243,-0.00370471126778,0.191186860204,-9.63191318512,0.940768837929
1560000123832909584,-0.00879428256303,0.0436427742243,-0.00525349192321,0.211390599608,-9.59248638153,0.880253553391
1560000123836822271,-0.0127044783946,0.0397325804792,-0.00350816268474,0.190888211131,-9.53273677826,0.860366940498
1560000123840735912,-0.0168378287966,0.0384067893028,-0.00350816268474,0.212695658207,-9.57333087921,0.780443668365
1560000123844648361,-0.0199087843464,0.037303984063,-0.00286563696351,0.23533654213,-9.535115242,0.570411324501
1560000123848562002,-0.0210115872324,0.0384067893028,-0.000135445568504,0.297525137663,-9.59587097168,0.469794929028
1560000123852474689,-0.0218909055038,0.0384067893028,-0.000883514800002,0.301883041859,-9.70696926117,0.311035752296
1560000123856387138,-0.0209071601282,0.0383023619758,-0.00350816268474,0.263760745525,-9.7473487854,0.252382278442
1560000123860300779,-0.0192662589252,0.035572270095,-0.00241897500083,0.248085260391,-9.86825084686,0.11406943202
1560000123864214420,-0.0192662589252,0.0310970556505,-0.00176283356268,0.192044392228,-9.90958213806,-0.0637528598309
1560000123868127823,-0.0179532689624,0.0296801384538,-0.00176283356268,0.212882250547,-9.92988681793,-0.103936851025
1560000123872041464,-0.0152233214523,0.0314254686236,-0.00176283356268,0.273938804865,-9.97027397156,-0.154846221209
1560000123875954151,-0.0124939614365,0.0314254686236,-0.00176283356268,0.273315191269,-9.87093544006,-0.215312629938
1560000123879867792,-0.0107339070623,0.0296801384538,-0.00253835049979,0.253771871328,-9.87107944489,-0.234803438187
1560000123883781195,-0.00701967574837,0.0261748430436,-0.00350816268474,0.233903586864,-9.87106227875,-0.23435869813
1560000123887694836,-0.00155921421999,0.0244441516697,-0.00250862243343,0.174917161465,-9.99015045166,-0.152490615845
1560000123891608477,0.00167769286782,0.0226988214999,-0.00176283356268,0.173785090446,-9.96978092194,-0.102783530951
1560000123895520926,0.00167769286782,0.0226988214999,-0.00176283356268,0.212861210108,-10.0090990067,-0.0236667990685
1560000123899434566,0.00434723458905,0.0222367155051,-1.75042805495e-05,0.229202359915,-9.82911109924,0.0145723372698
1560000123903348207,0.00980637690886,0.0180607968672,-1.75042805495e-05,0.167637348175,-9.86769580841,0.175655156374
1560000123907260656,0.0121496682987,0.0150324102438,-1.75042805495e-05,0.145195752382,-9.76736736298,0.235247045755
1560000123911175251,0.0121496682987,0.0123015375426,-1.75042805495e-05,0.142287001014,-9.7065038681,0.354464828968
1560000123915087938,0.0121496682987,0.0104091906622,-1.75042805495e-05,0.0985122323036,-9.61533546448,0.514245390892
1560000123919000387,0.0121496682987,0.006990859285,-0.000164999066879,0.0962323248386,-9.63400650024,0.673862099648
1560000123922913074,0.0132807396956,0.006990859285,-0.000631762137486,0.0934807732701,-9.59302616119,0.803179621696
1560000123926826715,0.0135243479701,0.00662020971795,-1.75042805495e-05,0.0899221152067,-9.5318403244,0.962268590927
1560000123930740118,0.0107942972294,0.00389015915812,-1.75042805495e-05,0.117774821818,-9.5308971405,1.08121502399
1560000123934653759,0.00572428851756,0.00234956775849,-0.000612200328263,0.166150927544,-9.51049232483,1.139778018
1560000123938567400,0.00184364561703,0.00350020104088,-0.000183457033919,0.124973170459,-9.43051719666,1.15010762215
1560000123942478895,-6.76363852108e-05,0.00186599286432,-1.75042805495e-05,0.0860437452793,-9.45068836212,1.12122559547
1560000123946391582,-0.00361402145764,9.54246752372e-06,-1.75042805495e-05,0.0640895888209,-9.35060501099,1.1509141922
1560000123950306177,-0.00738617980705,9.54246752372e-06,-1.75042805495e-05,0.143871858716,-9.41024684906,1.18940210342
1560000123954218864,-0.0125645725223,-0.000270089018034,-1.75042805495e-05,0.145019695163,-9.37120628357,1.07949244976
1560000123958132267,-0.0152945357061,-0.00300005280892,-1.75042805495e-05,0.167455986142,-9.49133586884,1.03996813297
1560000123962044954,-0.0175209287554,-0.00348111591302,-1.75042805495e-05,0.189577892423,-9.57169628143,0.980244278908
1560000123965958595,-0.0190083505839,-0.00348111591302,-1.75042805495e-05,0.292158216238,-9.61300754547,0.818799734116
1560000123969871998,-0.0217384194619,-0.00522644538432,-1.75042805495e-05,0.374382853508,-9.65405845642,0.687703251839
1560000123973784685,-0.0244679780333,-0.00522644538432,-1.75042805495e-05,0.339004218578,-9.76512145996,0.529833555222
1560000123977697372,-0.0262475758791,-0.00427712348279,-1.75042805495e-05,0.282177239656,-9.70703315735,0.301512688398
1560000123981609821,-0.0262475758791,-0.00173578679096,-1.75042805495e-05,0.322912305593,-9.61843967438,0.150512605906
1560000123985523462,-0.0262475758791,-0.00173578679096,-1.75042805495e-05,0.407676100731,-9.88851833344,0.0907078385353
1560000123989437103,-0.0245022457093,-0.00389300438379,-1.75042805495e-05,0.466657280922,-9.7892332077,0.0289072394371
1560000123993350506,-0.0245022457093,-0.00382981561067,-1.75042805495e-05,0.619070768356,-9.83066940308,-0.143617004156
1560000123997264147,-0.0245022457093,0.00191739429429,-1.75042805495e-05,0.879297554493,-9.87147712708,-0.228877127171
1560000124001177788,-0.0245022457093,0.0117279913987,-1.75042805495e-05,0.916652083397,-9.66236782074,-0.290958553553
1560000124005090237,-0.0236159402612,0.0191808832425,0.00172782491427,0.952981948853,-9.6409034729,-0.102591812611
1560000124009003878,-0.0246005581909,0.0264844190744,0.00337484183349,1.10338521004,-9.9091053009,0.0752739310265
1560000124012917519,-0.0262475758791,0.0357581993105,0.00172782491427,1.28161537647,-9.66140365601,-0.139701485634
1560000124016829967,-0.0279929041862,0.0490650008562,0.00172782491427,1.57298636436,-9.54445838928,-0.465911239386
1560000124020742655,-0.0266873999153,0.0667439436015,0.00172782491427,1.84365046024,-9.52610778809,-0.641499638557
1560000124024656296,-0.026792658422,0.0886910928539,0.00401823710297,1.67220211029,-9.40584564209,-0.598639726639
1560000124028568745,-0.0310510549985,0.110196844226,0.00521848350763,0.956430733204,-9.50397872925,-0.452388197184
1560000124032479525,-0.0365063740786,0.126012971008,0.00445240744717,0.0561455413699,-9.56443881989,-0.601209402084
1560000124036391973,-0.0402198541262,0.137909836193,0.00347315426916,0.0848947018385,-9.77683258057,-0.939174056053
1560000124040305614,-0.0437008664012,0.147840182499,0.00347315426916,0.849356710911,-9.69806194305,-1.00666308403
1560000124044219255,-0.047420168396,0.161951680339,0.0032445124767,1.62561845779,-9.93711853027,-0.872907757759
1560000124048131943,-0.050149535765,0.178327884553,0.00051514358048,1.17332315445,-9.5478925705,-0.925280570984
1560000124052044392,-0.0541728436947,0.199095516194,-1.75042805495e-05,0.389857858419,-9.95880222321,-1.19385266304
1560000124055956125,-0.0527383026187,0.218056299267,-1.75042805495e-05,-0.298047214746,-9.39250850677,-1.5909485817
1560000124059868574,-0.0500092396156,0.229320607929,-0.00176283356268,-0.727680623531,-9.94542121887,-2.10560727119
1560000124063782215,-0.0456214599092,0.227077600896,-0.00176283356268,-0.203710570931,-9.18707942963,-2.1026930809
1560000124067694902,-0.0437008664012,0.217231195627,-0.000914113790233,-0.524456977844,-10.0617589951,-1.66093480587
1560000124071608305,-0.0435656123873,0.207297947561,-0.00364341677084,-0.587995350361,-10.1884860992,-1.28993451595
1560000124075523853,-0.0408340523082,0.200224753109,-0.00637497830751,0.862784326077,-8.86303710938,-1.4412637949
1560000124079436541,-0.0359988698342,0.201803415793,-0.00976879964095,1.29564332962,-11.5795536041,-1.55160820484
1560000124083349228,-0.0305410572686,0.212677974509,-0.0043109870315,0.287183940411,-9.04599380493,-1.89544308186
1560000124087261677,-0.025082248117,0.219338359394,-0.00234549709394,-0.991033315659,-10.4971914291,-2.46456193924
1560000124091174364,-0.0211900790434,0.208774661993,-0.00507500001689,-2.06996846199,-9.04251480103,-1.67328929901
1560000124095088005,-0.0210115872324,0.183934501032,-0.00605961704568,-1.30902397633,-10.5018692017,-0.603970885277
1560000124099002361,-0.017429140058,0.15851324144,-0.00699882116169,1.19725871086,-9.530128479,-1.19498765469
1560000124102915049,-0.0109406773372,0.140438006465,-0.00596895684795,2.19090795517,-10.3134183884,-1.6801213026
1560000124106827736,-0.00476685507917,0.129163905978,-0.00350816268474,0.381585210562,-10.3507623672,-1.51977276802
1560000124110739231,-0.000561358854049,0.130415512076,-0.00350816268474,-1.36086881161,-10.0402412415,-1.54270982742
1560000124114652872,0.000913778587946,0.128182487343,-0.00127212606587,-1.28064393997,-10.268450737,-1.36355113983
1560000124118566513,0.00637404577671,0.116820174474,-1.75042805495e-05,-0.25011959672,-9.83731365204,-1.04086339474
1560000124122479916,0.0118337429475,0.0990116836274,-0.00247753545864,0.753893792629,-9.77912425995,-1.16339635849
1560000124126393557,0.0138949975371,0.0788706229886,-0.0052075975745,0.529910624027,-9.95941257477,-1.25677251816
1560000124130303860,0.0156403258443,0.0670126612354,-0.00525349192321,-0.151920825243,-9.85663986206,-0.953245043755
1560000124134217739,0.0196584766555,0.0589990762499,-0.00315650231508,-0.0893052220345,-10.1453733444,-0.852988243103
1560000124138132334,0.0266896446944,0.0535374093379,-1.75042805495e-05,0.280673861504,-9.69634342194,-0.844471096992
1560000124142043591,0.031747539472,0.0494263386442,-1.75042805495e-05,0.0873002931476,-9.89686393738,-0.968285799026
1560000124145956278,0.0358592742957,0.0398567941234,-1.75042805495e-05,-0.279039204121,-10.1843261719,-0.748821496964
1560000124149869919,0.0406973424196,0.025445187322,-1.75042805495e-05,-0.200625017285,-9.97097873688,-0.283721655607
1560000124153782368,0.0434266930479,0.0145277789833,-1.75042805495e-05,0.0526131615043,-9.40423583984,-0.542458057404
1560000124157696009,0.0435655936599,0.00704540062754,-1.75042805495e-05,0.158696904778,-10.2444496155,-0.73827445507
1560000124161607742,0.0435655936599,0.00167186366738,0.00172782491427,-0.208512693644,-9.68977642059,-0.0762448310852
1560000124165521145,0.0457010289845,-0.00319360889365,0.00279554207806,-0.493979841471,-10.2156734467,0.292540490627
1560000124169434786,0.0491088774054,-0.0116916141506,0.00347315426916,-0.437375307083,-8.82787513733,0.321464061737
1560000124173348427,0.0505469106138,-0.0213198384038,0.00347315426916,-0.259396970272,-11.0358762741,0.113636910915
1560000124177262068,0.0482704676015,-0.0307232837687,0.00172782491427,-0.185009896755,-7.95868062973,0.429334998131
1560000124181175470,0.0440247164235,-0.0346674794389,0.000212056973001,-0.440321356058,-10.5791759491,1.02129602432
1560000124185089350,0.0368191621341,-0.0381528154873,-1.75042805495e-05,-0.404796034098,-9.46803665161,1.40138411522
1560000124189001799,0.0330999389892,-0.0436110480418,-1.75042805495e-05,-0.260304301977,-8.29742336273,1.73875916004
1560000124192914248,0.0293931734735,-0.0498372317764,-0.00099506211951,-0.313106715679,-9.52373600006,1.92784941196
1560000124196826935,0.0217566303868,-0.0506050027907,-0.00372441578759,-0.211044758558,-7.4802980423,1.56256353855
1560000124200740576,0.012037092535,-0.0518060826968,-0.00645456990661,-0.335815489292,-10.2649812698,1.61465060711
1560000124204653025,0.0038488785283,-0.0558409914374,-0.00699882116169,-0.37782394886,-8.13478088379,2.08902263641
1560000124208565712,-0.00149103771053,-0.0586877925927,-0.00699882116169,-0.5563108325,-10.244011879,1.7190887928
1560000124212478161,-0.00837324900898,-0.0672162303793,-0.00699882116169,-0.576183855534,-8.59025478363,1.2994594574
1560000124216391802,-0.0138336468157,-0.0748429869088,-0.00535180365461,-0.277874410152,-10.3285551071,1.16538369656
1560000124220304489,-0.0184312527182,-0.0802756026387,-0.00699882116169,-0.139684528112,-8.94187736511,1.06294691563
1560000124224218130,-0.0264973117815,-0.0822706668482,-0.00874415040016,0.0418682694435,-10.0920906067,0.80781185627
1560000124228130579,-0.0308468843175,-0.0866202393842,-0.00874415040016,-0.158795148134,-9.59578514099,0.440152704716
1560000124232041359,-0.0290465556047,-0.0896939225395,-0.00874415040016,-0.27774772048,-9.76908683777,-0.0143537819386
1560000124235953808,-0.0249177924743,-0.0951524722105,-0.00874415040016,-0.125544011593,-9.98867225647,0.00369742512703
1560000124239867449,-0.023933333023,-0.105240528827,-0.00874415040016,0.072158575058,-10.0081672668,0.0791243314743
1560000124243781090,-0.0196497115383,-0.116160606764,-0.0102977532298,0.399062722921,-10.3397274017,-0.155074059963
1560000124247694492,-0.0141902980069,-0.121210826133,-0.00795149989935,0.663335621357,-9.91218090057,-0.343334704638
1560000124251607180,-0.0104457816081,-0.122163504362,-0.00874415040016,0.628533244133,-10.3008098602,-0.260130316019
1560000124255519867,-0.00327228437699,-0.12114783505,-0.00772848054562,0.513626337051,-10.0899524689,-0.11952033639
1560000124259433270,0.000441390999765,-0.120418176055,-0.00525349192321,0.472443252802,-10.0297803879,-0.0891232192516
1560000124263345957,0.00466168060851,-0.122895491737,-0.004014833421,0.412503004074,-10.0691709518,-0.0277183949947
1560000124267259598,0.00786918684979,-0.128355009941,-0.00128508041746,0.503789007664,-9.80777931213,0.207570016384
1560000124271173954,0.0133302928509,-0.135279089143,-1.75042805495e-05,0.729962646961,-9.94547462463,0.48247730732
1560000124275087595,0.0163428812847,-0.137168919337,-1.75042805495e-05,0.863867640495,-9.84399700165,0.697996020317
1560000124279001236,0.0190724539972,-0.131065757172,-1.75042805495e-05,0.758082509041,-9.63274288177,0.888222694397
1560000124282914877,0.0182046107403,-0.123801412067,-1.75042805495e-05,0.470419496298,-9.86046409607,1.09554445744
1560000124286827326,0.0172205345377,-0.118672840297,-1.75042805495e-05,0.147257521749,-9.51095962524,1.08041596413
1560000124290740013,0.0156403258443,-0.118672840297,-1.75042805495e-05,0.11808399111,-9.590467453,1.12148201466
1560000124294654608,0.0142839383869,-0.118672840297,-1.75042805495e-05,0.14289174974,-9.42956542969,1.26927649975
1560000124298568010,0.0142667866937,-0.118672840297,0.0013560355686,0.159835457802,-9.42812919617,1.44825208187
1560000124302480698,0.0109253420476,-0.120418176055,-1.75042805495e-05,0.0181790050119,-9.34749889374,1.53057980537
1560000124306394339,0.00706217272039,-0.118821332989,0.00157933278084,-0.178585529327,-9.46710968018,1.53581881523
1560000124310308933,0.00258594280268,-0.119509922728,0.00172782491427,-0.280159473419,-9.30746459961,1.51705157757
1560000124314222336,-6.76363852108e-05,-0.120418176055,0.00165196988529,-0.137250542641,-9.56696796417,1.53558886051
1560000124318135977,-0.00218910287214,-0.119357438845,-1.75042805495e-05,-0.257078528404,-9.44771957397,1.45772349834
1560000124322049618,-0.00764990869416,-0.118372362773,-0.000317981972866,-0.321455091238,-9.58886432648,1.28078317642
1560000124325962067,-0.0118234999819,-0.11692751199,-0.00304672165745,-0.271113455296,-9.51002120972,1.1595300436
1560000124329874754,-0.0145530706782,-0.11745031239,-0.00473069124451,-0.22832672298,-9.6502122879,1.10972499847
1560000124333788395,-0.0172832166461,-0.123195696088,-0.00200054552927,-0.0491715595126,-9.59112453461,1.02558422089
1560000124337701797,-0.0182673831439,-0.127147074533,-0.00425461667492,0.0144714470953,-9.68231296539,0.865358948708
1560000124341617584,-0.0192662589252,-0.129144832492,-0.00698634459676,0.157909885049,-9.78363323212,0.693452835083
1560000124345531225,-0.0182944877859,-0.127399504185,-0.00699882116169,0.21946439147,-9.78465652466,0.572505116463
1560000124349444866,-0.0157755985856,-0.128933484202,-0.00504214352068,0.322348624468,-9.90534305573,0.471394985914
1560000124353358507,-0.0157755985856,-0.128595549736,-0.00470420887452,0.363081037998,-9.82664966583,0.330428659916
1560000124357270956,-0.0135957679053,-0.13393899553,-0.00568799429637,0.324948221445,-9.90663528442,0.311910241842
1560000124361183643,-0.00944778384771,-0.139290051867,-0.00558024256555,0.326232284307,-9.96669101715,0.292370438576
1560000124365097284,-0.00530362408608,-0.142019872439,-0.00525349192321,0.46435636282,-9.88711738586,0.268793970346
1560000124369009733,-0.00530362408608,-0.144749025478,-0.0036119245184,0.505371689796,-9.9670124054,0.268432199955
1560000124372924328,-0.00530362408608,-0.146598115563,-0.000881434774039,0.423000276089,-9.86647129059,0.349293887615
1560000124376837015,-0.0033183971206,-0.144852787256,-1.75042805495e-05,0.242896586657,-9.82605743408,0.392903864384
1560000124380749464,0.00103639213588,-0.144852787256,-1.75042805495e-05,0.162128970027,-9.80553722382,0.454357683659
1560000124384660959,0.00342302210629,-0.14693966136,-1.75042805495e-05,0.140960901976,-9.80487251282,0.534544825554
1560000124388575792,0.00209573419129,-0.150998018284,-1.75042805495e-05,0.138057395816,-9.72420692444,0.633695065975
1560000124392488003,0.00167769286782,-0.154145312122,-1.75042805495e-05,0.155483275652,-9.7428150177,0.802834749222
1560000124396399736,0.0032264728258,-0.156873551132,-0.00156628427727,0.122452400625,-9.66195964813,0.922587752342
1560000124400311232,0.00595521313725,-0.157070100307,-0.000975971750508,0.0895919054747,-9.55148220062,1.00227177143
1560000124404223919,0.00688790629245,-0.155324772,-1.75042805495e-05,0.0306264739484,-9.59135723114,1.00386977196
1560000124408137560,0.00415794983041,-0.155324772,-0.00102790582018,-0.0911617204547,-9.5107460022,1.08575284481
1560000124412050962,-6.76363852108e-05,-0.157568954447,-1.75042805495e-05,-0.090522326529,-9.55067539215,1.08601665497
1560000124415963650,-0.00130111108364,-0.161794230972,-0.00125097902011,0.0280426573008,-9.53065490723,1.10315191746
1560000124419878244,-0.00577705188431,-0.164524841082,-0.00176283356268,0.14725227654,-9.53076171875,1.10048353672
1560000124423791647,-0.00704895332456,-0.16725472968,-0.00176283356268,0.168404564261,-9.59083557129,1.08049893379
1560000124427703381,-0.00879428256303,-0.170679070409,-0.00350816268474,0.120038948953,-9.5716342926,0.981800913811
1560000124431616068,-0.0104740954009,-0.174457867013,-0.00350816268474,0.0726429224014,-9.57272052765,0.843363523483
1560000124435528517,-0.01228494104,-0.176268711686,-0.00258960342934,0.0540639236569,-9.61295604706,0.804201006889
1560000124439444065,-0.0141891332441,-0.178172902959,-0.00160397050827,0.175367295742,-9.68342494965,0.7421875
1560000124443356752,-0.0157755985856,-0.1797593683,-1.75042805495e-05,0.217386394739,-9.65488624573,0.571647584438
1560000124447269201,-0.0175209287554,-0.18226828074,-0.000399294930243,0.25986135006,-9.74540901184,0.49160939455
1560000124451182842,-0.016154895497,-0.186361399924,-0.00176283356268,0.162464439869,-9.76609230042,0.39428704977
1560000124455093622,-0.0140302702785,-0.18674069643,-0.00176283356268,0.124986760318,-9.82659816742,0.31582993269
1560000124459006071,-0.0156180667992,-0.183565103389,-0.00176283356268,0.0262953024358,-9.8268327713,0.278182446957
1560000124462919712,-0.014948829105,-0.183250039816,-0.00258960342934,-0.050583422184,-9.84785747528,0.140544176102
1560000124466832161,-0.01228494104,-0.188551541129,-0.00182834998514,-0.110182985663,-9.82800102234,0.121810860932
1560000124470745802,-0.0112347822489,-0.191281511275,-0.00245800396369,-0.0893661379814,-9.92751979828,0.161896914244
1560000124474658489,-0.00850561190113,-0.19633334949,-0.00176283356268,-0.0694873481989,-9.88793087006,0.12131716311
1560000124478572130,-0.00577555528261,-0.20197672025,-0.00176283356268,-0.0502584725618,-9.84801959991,0.120608575642
1560000124482484579,-0.0047919646894,-0.204705638625,-0.00176283356268,-0.0900002717972,-9.86778736115,0.141565576196
1560000124486398220,-0.00206182301307,-0.207435778845,-0.00176283356268,-0.190311223269,-9.8474111557,0.183528512716
1560000124490310907,-6.76363852108e-05,-0.212645494996,-0.00176283356268,-0.132635071874,-9.76728153229,0.221537798643
1560000124494224310,-6.76363852108e-05,-0.219824626367,-0.00176283356268,-0.0137609262019,-9.80683135986,0.278939992189
1560000124498138905,-6.76363852108e-05,-0.227057529428,-0.000803035356743,0.102555699646,-9.68666648865,0.335286796093
1560000124502054453,-6.76363852108e-05,-0.23037391901,-0.00176283356268,0.140997692943,-9.66625118256,0.394072175026
1560000124505967140,-6.76363852108e-05,-0.23037391901,-0.00294711663663,0.178299754858,-9.65517425537,0.532665908337
1560000124509880543,0.000355554439268,-0.232119247317,-0.00350816268474,0.21610237658,-9.594830513,0.591187477112
1560000124513793230,0.00449223565729,-0.236341059249,-0.000693619953927,0.155852928758,-9.57465076447,0.612325310707
1560000124517705917,0.00387565069383,-0.241039625389,-1.75042805495e-05,0.135664969683,-9.55466842651,0.612638115883
1560000124521618366,4.73103478517e-05,-0.247597323641,-0.0016478868277,0.115796692669,-9.55465126038,0.613082885742
1560000124525532007,-0.00442796486799,-0.252187535677,-1.75042805495e-05,0.116761021316,-9.59474182129,0.59341108799
1560000124529444695,-0.00879428256303,-0.254916785814,-1.75042805495e-05,0.0764008685946,-9.49536705017,0.533834218979
1560000124533359051,-0.00988762980454,-0.256553858519,-1.75042805495e-05,0.115817733109,-9.47543907166,0.532812833786
1560000124537272692,-0.0126175037595,-0.256553858519,-1.75042805495e-05,0.213843509555,-9.53429031372,0.670534014702
1560000124541186333,-0.0153476218633,-0.255236518181,-1.75042805495e-05,0.535742521286,-9.7445268631,0.624932229519
1560000124545098782,-0.016331203244,-0.250206655309,-0.00406376704667,0.788650453091,-9.72720909119,0.320207178593
1560000124549011469,-0.0175209287554,-0.244747949888,-0.00525349192321,0.752344250679,-9.6595582962,0.0415366292
1560000124552925110,-0.0183001417104,-0.237542144547,-0.00447427938398,0.505764961243,-9.70973396301,-0.0123811066151
1560000124556836605,-0.0192662589252,-0.233847940679,-0.00349152773109,0.187846317887,-9.80846405029,0.0950722694397
1560000124560749292,-0.0182653880347,-0.232119247317,-0.000761963181177,0.0335909202695,-9.88987922668,-0.110165864229
1560000124564661980,-0.013791060901,-0.232597665817,-1.75042805495e-05,0.0349064692855,-9.83111572266,-0.250110775232
1560000124568576336,-0.0110604168656,-0.239283484949,-1.75042805495e-05,0.177836447954,-10.0114078522,-0.311843425035
1560000124572489023,-0.010076175337,-0.244799996586,-1.75042805495e-05,0.393494427204,-9.89132976532,-0.257720291615
1560000124576402664,-0.00589892476552,-0.244634210549,-1.75042805495e-05,0.560566484928,-9.96980381012,-0.0715847313404
1560000124580316067,-0.00287120435042,-0.242962380107,-0.000704594794924,0.557998478413,-9.84969234467,-0.032505095005
1560000124584228754,-0.00181296560913,-0.235831502209,-0.00343429676807,0.510445177555,-9.83089542389,-0.181042104959
1560000124588142395,-6.76363852108e-05,-0.225897358159,-0.00259775141173,0.271061569452,-9.79059123993,-0.156033545732
1560000124592053890,0.00182618564307,-0.219753456471,-0.00176283356268,0.131160780787,-9.82966899872,-0.0629463493824
1560000124595967531,0.00455618821922,-0.217023455352,-0.00176283356268,0.137530997396,-9.7882938385,0.115987792611
1560000124599881172,0.00516835134476,-0.218528933099,-0.00350816268474,0.383924156427,-9.8271522522,0.270177155733
1560000124603796721,0.00652675427065,-0.219901949167,-0.00350816268474,0.909138798714,-9.80717277527,0.318066447973
1560000124607709169,0.00691368058324,-0.215217576676,-0.00291130446768,1.40293669701,-9.74675369263,0.426165789366
1560000124611621857,0.00691368058324,-0.208178005319,-0.000181960305268,1.47982609272,-9.68612289429,0.52366900444
1560000124615534306,0.00516835134476,-0.198352318447,-1.75042805495e-05,0.970132350922,-9.5554151535,0.593959093094
1560000124619447947,0.00342302210629,-0.184761147139,-1.75042805495e-05,0.255173236132,-9.6539516449,0.690371632576
1560000124623359680,0.00342302210629,-0.175929822662,-1.75042805495e-05,-0.0245704967529,-9.51427364349,0.655803382397
1560000124627273083,0.00342302210629,-0.178856930455,0.000263458550012,0.126833960414,-9.68394565582,0.673524737358
1560000124631187677,0.0021565944129,-0.185782893851,0.00172782491427,0.581367075443,-9.68314170837,0.812812805176
1560000124635101318,-6.76363852108e-05,-0.185222676815,-1.75042805495e-05,0.965095639229,-9.55290985107,0.902960777283
1560000124639014959,-6.76363852108e-05,-0.177033955586,-1.75042805495e-05,0.796194314957,-9.63197040558,0.987011194229
1560000124642927408,-0.000796630395355,-0.166371423949,0.000711489717438,0.308782249689,-9.59160614014,0.997643470764
1560000124646839142,-0.00181296560913,-0.157167922466,1.51031221017e-05,0.0123934652656,-9.55254268646,0.864501476288
1560000124650752783,-0.00181296560913,-0.153579443693,-1.75042805495e-05,-0.00586583651602,-9.61274147034,0.825470805168
1560000124654668331,-0.00355829484761,-0.153579443693,-1.75042805495e-05,0.191836759448,-9.63223648071,0.900897741318
1560000124658581734,-0.00591245980204,-0.153579443693,-1.75042805495e-05,0.390674054623,-9.66219902039,0.916583776474
1560000124662494421,-0.0113710218446,-0.151418395685,-1.75042805495e-05,0.660504698753,-9.72265720367,0.871104478836
1560000124666408062,-0.0126298164644,-0.145887412977,-0.00141795812968,0.761151075363,-9.70358943939,0.769070863724
1560000124670321465,-0.012924385133,-0.140083243138,-0.00176283356268,0.842227876186,-9.78367996216,0.74788403511
1560000124674235106,-0.0156543768841,-0.131375047605,-0.00176283356268,0.862421154976,-9.7838602066,0.727503657341
1560000124678147793,-0.012304229729,-0.1187307101,-0.00350816268474,0.744018614292,-9.8039598465,0.700400590897
1560000124682061195,-0.00704895332456,-0.106150126283,-0.00350816268474,0.666186034679,-9.74528884888,0.542299032211
1560000124685974836,-0.00704895332456,-0.100132980598,-0.00350816268474,0.647612333298,-9.76571941376,0.483068943024
1560000124689294338,-0.00672360645243,-0.0974035464623,-0.00143748668241,0.786354780197,-9.80528926849,0.540026426315
1560000124693206549,-0.00530362408608,-0.0933643244086,-1.75042805495e-05,0.945604860783,-9.88480567932,0.596802949905
1560000124697119474,-0.00530362408608,-0.0879049918593,-1.75042805495e-05,1.1135365963,-9.78545570374,0.552491903305
1560000124701031446,-0.00530362408608,-0.0824461989695,-1.75042805495e-05,1.03566193581,-9.88520812988,0.554930448532
1560000124704944611,-0.00453191338695,-0.0744698118681,-1.75042805495e-05,0.824807226658,-9.74526882172,0.558676719666
1560000124708856344,-0.00180265393148,-0.0627810579771,-1.75042805495e-05,0.546965956688,-9.78478813171,0.585102558136
1560000124712769508,-6.76363852108e-05,-0.0528570527536,0.000977141745595,0.435756504536,-9.72431182861,0.646959602833
1560000124716681480,-6.76363852108e-05,-0.046880859645,0.00196131108742,0.433329880238,-9.6834936142,0.756341576576
1560000124720594406,-6.76363852108e-05,-0.044150945036,0.00347315426916,0.541635811329,-9.66330242157,0.793634772301
1560000124724506617,-6.76363852108e-05,-0.0427101712752,0.00172782491427,0.640327274799,-9.66306781769,0.831282138824
1560000124728418350,-6.76363852108e-05,-0.0358110314986,0.000287159298585,0.638867616653,-9.65243911743,0.910958647728
1560000124732330561,-6.76363852108e-05,-0.0293685840086,-1.75042805495e-05,0.558749914169,-9.63224220276,0.932541251183
1560000124736242533,-6.76363852108e-05,-0.0228440582748,-1.75042805495e-05,0.289569139481,-9.57210826874,0.938149452209
1560000124740155458,-0.00271556703173,-0.0111854132525,-1.75042805495e-05,0.132562160492,-9.6125421524,0.862228751183
1560000124744067669,-0.00369921927047,-0.00159486236648,-1.75042805495e-05,0.131917521358,-9.59241485596,0.882032513618
1560000124747979403,-0.00642848471131,-0.0011153181706,-1.75042805495e-05,0.212685137987,-9.61293697357,0.820578694344
1560000124751891613,-0.00915814930388,-0.00137192004594,-0.00212670027925,0.410723179579,-9.59298706055,0.835934996605
1560000124755804539,-0.0105396118015,0.00135818327225,-0.00350816268474,0.492135494947,-9.63363456726,0.754677534103
1560000124759717464,-0.0111272088525,0.00467539506449,-0.00176283356268,0.374694675207,-9.70372772217,0.717936456203
1560000124763630629,-0.01228494104,0.00856333648929,-0.00176283356268,0.257447868586,-9.65508365631,0.550822496414
1560000124767543554,-0.01228494104,0.013038538985,-0.00176283356268,0.22110491991,-9.72605609894,0.412624597549
1560000124771456480,-0.01228494104,0.017564649641,-0.00350816268474,0.281354337931,-9.7462348938,0.39148670435
1560000124775367737,-0.01228494104,0.0219879837023,-0.00454265374629,0.362771898508,-9.76707839966,0.290161728859
1560000124779280424,-0.0143034663426,0.0226988214999,-0.00350816268474,0.404442340136,-9.82749271393,0.229861229658
1560000124783193588,-0.0157755985856,0.0201826891425,-0.00225009591862,0.306086361408,-9.78828239441,0.132143110037
1560000124787106752,-0.0135330072255,0.0174628347158,-0.000514767345942,0.287177175283,-9.84815979004,0.132983624935
1560000124791018486,-0.0108038892835,0.0189438872626,-0.00176283356268,0.247445881367,-9.82832050323,0.11380559206
1560000124794931650,-0.00632813621717,0.0192081648856,-0.00350816268474,0.189140856266,-9.82891464233,0.0353974252939
1560000124798843622,-0.00530362408608,0.0209130664537,-0.00350816268474,0.168622687459,-9.82857322693,0.0757133364677
1560000124802753687,-0.00355829484761,0.0226988214999,-0.00256639964869,0.0683170109987,-9.78839302063,0.0976087749004
1560000124806666851,-0.00355829484761,0.0205906239013,-0.00176283356268,0.0279305707663,-9.78803443909,0.138369441032
1560000124810578585,-0.00239357752274,0.0151334000661,-0.00176283356268,0.125977367163,-9.76767349243,0.195820599794
1560000124814492702,-6.76363852108e-05,0.0100765364197,-0.00176283356268,0.145201012492,-9.74756526947,0.215179532766
1560000124818402529,0.00131984318413,0.00873618852347,-0.0003753539702,0.104169927537,-9.72708034515,0.275743871927
1560000124822315693,0.00105107075399,0.0063642371764,-0.00113621143841,-0.036197245121,-9.68670368195,0.318464368582
1560000124826227427,-6.76363852108e-05,0.0036348150955,-0.00162821948673,-0.09742154181,-9.66603851318,0.399409025908
1560000124830140591,-6.76363852108e-05,9.54246752372e-06,-0.00176283356268,-0.0588091760874,-9.61600112915,0.418125331402
1560000124834052801,-6.76363852108e-05,-0.00182443359011,-0.00176283356268,0.0206639003009,-9.61607265472,0.416346371174
1560000124837965488,-6.76363852108e-05,-0.00670026643775,-0.00176283356268,0.129609182477,-9.63581085205,0.453903436661
1560000124841878653,-0.00212527956282,-0.0131447041993,-0.00176283356268,0.138573735952,-9.61553192139,0.49342033267
1560000124845790863,-0.00355829484761,-0.0187401862091,-0.00176283356268,0.0996364057064,-9.66540813446,0.494639605284
1560000124849702597,-0.00355829484761,-0.0237492308239,-0.000552251001636,-0.0389461666346,-9.63582134247,0.437748134136
1560000124853614807,-0.00507712216666,-0.0292080501945,-0.00176283356268,-0.115827538073,-9.66674804688,0.310143589973
1560000124857528925,-0.00530362408608,-0.0329248540721,-0.00176283356268,-0.21437227726,-9.72647285461,0.322730869055
1560000124861440659,-0.00704629274043,-0.0383823797442,-2.01648647473e-05,-0.154924675822,-9.70664215088,0.31129693985
1560000124865352869,-0.00879428256303,-0.0448231642816,-0.000781231462077,0.00515353493392,-9.72715377808,0.258031964302
1560000124869265556,-0.00857341370856,-0.053012941033,-1.75042805495e-05,0.134606450796,-9.78683948517,0.295408129692
1560000124873177767,-0.00704895332456,-0.0587908375685,-0.0012220227773,0.0868907496333,-9.7679605484,0.15683889389
1560000124877090931,-0.00704895332456,-0.0615211689126,-0.00176283356268,-0.0502532273531,-9.82821559906,0.100541040301
1560000124881003618,-0.00562092668166,-0.0656783625239,-0.00176283356268,-0.357241809368,-9.84822845459,0.0676952302456
1560000124884916782,-0.00289059665784,-0.069393692705,-0.00176283356268,-0.555583775043,-9.78880310059,-0.00799554586411
1560000124888829947,-0.00181296560913,-0.0765069246359,-0.00176283356268,-0.436384677887,-9.82851600647,0.0294710695744
1560000124892741680,-0.00181296560913,-0.0873290907074,-0.00261745440528,-0.248610988259,-9.82820034027,0.0850528180599
1560000124896653891,-0.00168308444916,-0.0962433270372,-0.00163295239837,-0.011811228469,-9.80780124664,0.159326419234
1560000124900566578,-6.76363852108e-05,-0.10058846947,-1.75042805495e-05,-0.0528528243303,-9.82692337036,0.260025799274
1560000124904478788,0.00377591426424,-0.103670663528,-0.00176283356268,-0.23197118938,-9.74738883972,0.203693956137
1560000124908391953,0.00383062525831,-0.110468718265,-0.00310055955991,-0.421684116125,-9.70713043213,0.227590709925
1560000124912303686,0.00284717974025,-0.118079198566,-0.00350816268474,-0.442694872618,-9.72634983063,0.317877560854
1560000124916218758,0.00323959256181,-0.125103872637,-0.00350816268474,-0.34480535984,-9.68610477448,0.365229010582
1560000124920130968,0.00342302210629,-0.134092341481,-0.00256337910687,-0.236179754138,-9.68587875366,0.402654111385
1560000124924043655,0.00346262396403,-0.143226264459,-0.00525349192321,-0.235865309834,-9.72564697266,0.422853559256
1560000124927955866,0.00516835134476,-0.151415696878,-0.00422940995544,-0.286649674177,-9.63592243195,0.403436154127
1560000124931868792,0.00516835134476,-0.159604072084,-0.00350816268474,-0.38681653142,-9.68493843079,0.505667626858
1560000124935781717,0.00516835134476,-0.167794181971,-0.00350816268474,-0.527194201946,-9.68416690826,0.58852314949
1560000124939693928,0.00468175438759,-0.176956371021,-0.00350816268474,-0.626855254173,-9.66411304474,0.590614914894
1560000124943606615,0.00195188770039,-0.192076841541,-0.00203702837696,-0.665121555328,-9.63510036469,0.471692979336
1560000124947518826,-6.76363852108e-05,-0.207741524511,-0.00176283356268,-0.386640906334,-9.63551044464,0.44553104043
1560000124951430798,-6.76363852108e-05,-0.221388581616,-0.00345642348884,-0.139262363315,-9.6352481842,0.499778598547
1560000124955343723,-6.76363852108e-05,-0.23142700458,-0.00350816268474,-0.020548062399,-9.66481685638,0.557114839554
1560000124959255934,-6.76363852108e-05,-0.237869652351,-0.00333668972189,-0.216956108809,-9.6657705307,0.422013044357
1560000124963166714,-0.0012223155798,-0.247209946414,-0.00176283356268,-0.46368214488,-9.65645503998,0.317860543728
1560000124967080832,-0.00355829484761,-0.260667125192,-0.000412158411856,-0.482431441545,-9.72631454468,0.318767011166
1560000124970993996,-0.00355829484761,-0.277047968561,-0.00176283356268,-0.234570771456,-9.74609565735,0.363178700209
1560000124974904776,-0.00355829484761,-0.290437980898,-0.00176283356268,0.0637887567282,-9.70691871643,0.29643702507
1560000124978817940,-0.00516009281468,-0.301358299528,-0.00176283356268,0.124368406832,-9.70745658875,0.235296010971
1560000124982730865,-0.00530362408608,-0.310531964737,-0.00176283356268,0.0272911917418,-9.74810504913,0.138105601072
1560000124986642838,-0.00530362408608,-0.323193818345,-1.75042805495e-05,-0.112106382847,-9.72801589966,0.14108684659
1560000124990556002,-0.00317497086884,-0.33305066443,0.00104682230145,-0.270428955555,-9.82721233368,0.205111131072
1560000124994467735,-6.76363852108e-05,-0.341239173938,-1.75042805495e-05,-0.337693244219,-9.82828140259,0.0671185553074
1560000124998379946,-6.76363852108e-05,-0.351999623047,0.00126928940864,-0.337347269058,-9.7492313385,-0.0330871045589
1560000125002292871,-6.76363852108e-05,-0.365123842698,0.00172782491427,-0.246991485357,-9.84881210327,0.00544239580631
1560000125006204844,-6.76363852108e-05,-0.376038992879,0.00323750579303,-0.189336389303,-9.84789562225,0.12372174114
1560000125010118008,0.000681715945969,-0.386210948824,0.00422250659409,-0.231640979648,-9.72774791718,0.163690850139
1560000125014029741,0.00167769286782,-0.396132295163,0.00521848350763,-0.341251939535,-9.76709461212,0.226207539439
1560000125017941952,0.00342302210629,-0.403558843327,0.00250116013186,-0.381287127733,-9.66788196564,0.146695032716
1560000125021854877,0.00363407805515,-0.41273237931,-1.75042805495e-05,-0.481928259134,-9.66714763641,0.228661090136
1560000125025765896,0.00397402093549,-0.42364681448,-1.75042805495e-05,-0.46368214488,-9.65645503998,0.317860543728
1560000125029679060,0.00342302210629,-0.43238841732,0.00172782491427,-0.501817524433,-9.74634170532,0.309375882149
1560000125033590794,0.00342302210629,-0.439158147647,0.00314551035713,-0.4244120121,-9.5770368576,0.266604393721
1560000125037503958,0.00102082319259,-0.450510693864,0.00107095526095,-0.304418921471,-9.68646335602,0.32446834445
1560000125041418076,-6.76363852108e-05,-0.458702741827,-1.75042805495e-05,-0.196453720331,-9.72552108765,0.441899687052
1560000125045331001,0.00169581923602,-0.464266172645,-1.75042805495e-05,-0.120363682508,-9.61497783661,0.539073109627
1560000125049242973,0.00330245419279,-0.471349913485,-1.75042805495e-05,-0.237634137273,-9.65544700623,0.462263017893
1560000125053155899,0.000573016095012,-0.472974687815,-1.75042805495e-05,-0.258141756058,-9.61550045013,0.46244391799
1560000125057068825,-6.76363852108e-05,-0.473318794348,-1.75042805495e-05,-0.157681494951,-9.68546581268,0.460681974888
1560000125060981989,-6.76363852108e-05,-0.476048424692,-0.00134591715267,0.118045039475,-9.65479755402,0.573871254921
1560000125064896107,-6.76363852108e-05,-0.479348518682,-0.00176283356268,0.216427326202,-9.59499168396,0.571251869202
1560000125068809032,-0.00162129496901,-0.484808659787,-0.00020917492706,0.219165712595,-9.6854801178,0.492103099823
1560000125072721958,-0.00276579514898,-0.485984493376,-0.00255533320845,0.15908664465,-9.63567638397,0.473171919584
1560000125076633930,-0.00184423270455,-0.486937314272,-0.00525349192321,0.098826661706,-9.6551027298,0.53444480896
1560000125080548048,-0.00457494805269,-0.485920670289,-0.00423683871813,0.158245354891,-9.74418926239,0.633382260799
1560000125084460974,-0.00530362408608,-0.483190888848,-0.00176283356268,0.258881241083,-9.76472663879,0.57148373127
1560000125088374138,-0.00406309264682,-0.480460802883,-0.00176283356268,0.358558058739,-9.72537231445,0.509189367294
1560000125092287064,-0.00355829484761,-0.482181060263,-0.00176283356268,0.398614287376,-9.74537181854,0.508431851864
1560000125096199989,-0.00355829484761,-0.483446657658,-0.0032272802628,0.257607728243,-9.66506576538,0.550888538361
1560000125100113153,-0.00355829484761,-0.479251889086,-0.00525349192321,0.297333747149,-9.70470714569,0.59013402462
1560000125104026079,-0.001870012584,-0.474834096084,-0.00525349192321,0.476777046919,-9.78440284729,0.62653028965
1560000125107939005,-0.000995351836692,-0.47204696493,-0.00525349192321,0.566194832325,-9.74487686157,0.584393978119
1560000125111850977,-6.76363852108e-05,-0.469152269545,-0.00508761100707,0.605595886707,-9.78435611725,0.643575072289
1560000125115763903,-6.76363852108e-05,-0.462541456594,-0.00350816268474,0.514579713345,-9.72405910492,0.68505179882
1560000125119677067,-6.76363852108e-05,-0.455131092705,-0.00350816268474,0.514265298843,-9.6842918396,0.664852380753
1560000125123589993,-0.00144260363136,-0.451026128487,-0.00350816268474,0.514715850353,-9.82315540314,0.775421619415
1560000125127502918,-0.00119903148803,-0.445566880709,-0.00412209681096,0.660509943962,-9.70285415649,0.851036906242
1560000125131416082,0.00153129175427,-0.441705150768,-0.00365456379706,0.760176241398,-9.70310401917,0.828877568245
1560000125135329008,0.000839868171634,-0.436392443385,-0.00267033805143,0.818481266499,-9.70251083374,0.907285809517
1560000125139241934,-6.76363852108e-05,-0.427286801283,-0.00350816268474,0.778409302235,-9.74192047119,0.968245863914
1560000125143155098,-6.76363852108e-05,-0.415304775112,-0.00457016817519,0.638042092323,-9.70154285431,1.01096642017
1560000125147068024,-6.76363852108e-05,-0.40604988552,-0.00525349192321,0.577787399292,-9.70116615295,1.05217170715
1560000125150980949,-6.76363852108e-05,-0.400589848721,-0.00525349192321,0.576673686504,-9.61148738861,1.03164255619
1560000125154893160,-6.76363852108e-05,-0.397401150163,-0.00525349192321,0.715416133404,-9.65105628967,1.08860003948
1560000125158805132,-6.76363852108e-05,-0.393163558156,-0.00525349192321,0.913448929787,-9.6509103775,1.12402379513
1560000125162718058,-0.0025608929,-0.386955095177,-0.00525349192321,1.00397503376,-9.72086715698,1.12248420715
1560000125166630030,-0.00355829484761,-0.377037462883,-0.00525349192321,1.04292285442,-9.63138389587,1.08112990856
1560000125170542002,-0.00355829484761,-0.365149266438,-0.00253796257825,0.895029783249,-9.70112705231,1.08492720127
1560000125174455166,-0.00355829484761,-0.351497603877,-0.00350816268474,0.754827678204,-9.65093040466,1.10764610767
1560000125178368092,-0.00475228394652,-0.341432356557,-0.00350816268474,0.796327829361,-9.74096775055,1.08741474152
1560000125182281017,-0.00530362408608,-0.334226833872,-0.00176283356268,1.00495517254,-9.70154857635,1.04260993004
1560000125186194181,-0.0067218807623,-0.324511728724,-0.0031810901443,1.34432470798,-9.76206684113,0.995573997498
1560000125190107107,-0.00704895332456,-0.310206399337,-0.00416538416851,1.39561486244,-9.78272342682,0.914851665497
1560000125194020033,-0.00540678935773,-0.288898283918,-0.00525349192321,0.664367258549,-9.86321926117,0.772349953651
1560000125197931051,-0.00267830943835,-0.25821134478,-0.0105041212187,-0.30803540349,-9.84311008453,0.704299986362
1560000125201843262,-6.76363852108e-05,-0.225697420088,-0.0158440517114,-0.931941330433,-9.86332511902,0.618763208389
1560000125205756187,-6.76363852108e-05,-0.198398353209,-0.0196771220406,-0.703770816326,-9.82376003265,0.593449234962
1560000125209670067,0.00202073628928,-0.175955780563,-0.023392871517,0.317495435476,-9.82370471954,0.690158843994
1560000125213584185,0.00342302210629,-0.158242300681,-0.0275259831431,1.5773485899,-9.80414104462,0.751496195793
1560000125217497110,0.00573587417616,-0.13625442304,-0.0296881012619,2.75595211983,-9.74401092529,0.884123325348
1560000125221410275,0.00691368058324,-0.11168387195,-0.0296881012619,3.50866651535,-9.7633562088,1.02683985233
1560000125225323200,0.00865900982171,-0.0871124035514,-0.0246139252653,3.58442354202,-9.68235778809,1.17405021191
1560000125229236126,0.00865900982171,-0.0625773930589,-0.0191855137183,3.11542010307,-9.63138103485,1.26391410828
1560000125233148098,0.00764414416577,-0.0417556143504,-0.0154410656704,2.49725556374,-9.53068447113,1.31691253185
1560000125237061262,0.00291522913497,-0.0288993644733,-0.00972779018484,2.16815543175,-9.4307308197,1.30365562439
1560000125240975142,-6.76363852108e-05,-0.0219455711741,-0.00277399617248,2.18737387657,-9.43042469025,1.34308195114
1560000125244888067,-0.00229174619032,-0.0182315185501,0.000461276288664,2.27644014359,-9.4897518158,1.42121875286
1560000125248801231,-0.00502194202638,-0.0113074791285,0.00319147219067,1.98772168159,-9.40995883942,1.38726866245
1560000125252714157,-0.00949707282244,-0.00066995487537,0.00592127376705,1.46877777576,-9.68062782288,1.20147919655
1560000125256627083,-0.0122269020418,0.0119366520174,0.00865110298644,0.893910884857,-9.63125038147,1.08446538448
1560000125260540247,-0.0149570083173,0.0229151190191,0.0095277326897,0.636742293835,-9.70089626312,1.0907087326
1560000125264453173,-0.0175209287554,0.0298461071427,0.00854317338425,0.775036752224,-9.59170055389,1.02706325054
1560000125268366098,-0.0186714486928,0.0337265084984,0.00581329342267,1.00514650345,-9.59271240234,0.922270774841
1560000125272279263,-0.0210115872324,0.0395762762491,0.00521848350763,1.10983371735,-9.65487766266,0.651312351227
1560000125276192188,-0.0223860640609,0.0477662076436,0.00521848350763,1.13339948654,-9.80527687073,0.572114706039
1560000125280105114,-0.0238882622819,0.0553427170621,0.00583246660741,0.926706135273,-9.90507602692,0.557508468628
1560000125284017324,-0.0195616380177,0.0623983244148,0.010159091973,0.565565943718,-9.66534137726,0.543995022774
1560000125287930250,-0.0175209287554,0.0705886026897,0.0121998004615,0.283282995224,-9.8264169693,0.352143228054
1560000125291841269,-0.0175209287554,0.0768785730713,0.0121998004615,0.110275618732,-9.98759174347,0.157845318317
1560000125295753241,-0.0175209287554,0.0796081358192,0.0132585741266,-0.0294258613139,-9.88812828064,0.100492089987
1560000125299666166,-0.0134335821138,0.0808913788725,0.0142434734639,-0.252169638872,-9.76701259613,0.244141817093
1560000125303579330,-0.00925648711892,0.0850684716384,0.0156904570758,-0.483877956867,-9.66617774963,0.34827464819
1560000125307491302,-0.00827287943522,0.0855306759477,0.0129023234444,-0.517210125923,-10.0258302689,0.311667561531
1560000125311404228,-0.00554285622494,0.0855306759477,0.00744227702383,-0.59729629755,-9.88681411743,0.212845087051
1560000125315317392,-0.00455814543605,0.0872760042548,0.00372752615785,-0.537046849728,-9.90699481964,0.191707193851
1560000125319232225,-0.00182693680937,0.0872760042548,0.00172782491427,-0.561763048172,-9.80553531647,0.390848249197
1560000125323145151,-6.76363852108e-05,0.0872760042548,-1.75042805495e-05,-0.562135338783,-9.9836025238,0.591391444206
1560000125327057362,0.00188685337757,0.0855306759477,-1.75042805495e-05,-0.36599445343,-9.7646522522,0.525686144829
1560000125330970287,0.0046170631694,0.0867247163736,-0.00240558635699,0.00254867784679,-9.74566268921,0.437584221363
1560000125334884167,0.00516835134476,0.0877097165075,-0.00525349192321,0.157920405269,-9.74402713776,0.65331786871
1560000125338797331,0.0065868682128,0.089021332562,-0.00525349192321,0.132562160492,-9.6125421524,0.862228751183
1560000125342708349,0.00931562859172,0.0872760042548,-0.00350816268474,-0.025286115706,-9.76148796082,0.946518540382
1560000125346620321,0.0104043390602,0.0872760042548,-0.00514884822723,-0.144938468933,-9.59281349182,0.80851650238
1560000125350534439,0.00689821453784,0.0855152099105,-0.00525349192321,-0.045591853559,-9.57310009003,0.786225199699
1560000125354447365,0.00155778968706,0.0781896528599,-0.00525349192321,0.122772090137,-9.68192481995,0.922719717026
1560000125358361244,-6.76363852108e-05,0.0711031761341,-0.00525349192321,0.209440901875,-9.59151744843,0.999867081642
1560000125362275362,-0.00181296560913,0.0677322778502,-0.00559859968273,0.170055583119,-9.49262809753,0.880483388901
1560000125366187334,-0.00181296560913,0.0650029722472,-0.00566973558121,0.171019941568,-9.53271961212,0.860811591148
1560000125370100260,-0.00238126666765,0.061704791543,-0.00525349192321,0.210426270962,-9.55239677429,0.899925351143
1560000125374013424,-0.00511136173146,0.0577976703841,-0.00525349192321,0.409753620625,-9.57269954681,0.875674247742
1560000125377925396,-0.00784042420298,0.0576054081321,-0.00525349192321,0.372936367989,-9.59392166138,0.717210888863
1560000125381838322,-0.0105702140997,0.0558600798249,-0.00522288962503,0.412987291813,-9.63372516632,0.736520886421
1560000125385750532,-0.013299597482,0.0538307680237,-0.0024935063104,0.357114166021,-9.65533351898,0.528663277626
1560000125389663219,-0.0160293042766,0.048878762871,-1.75042805495e-05,0.179940283298,-9.59657287598,0.372785389423
1560000125393573523,-0.0175209287554,0.0476421972091,-1.75042805495e-05,0.0836359933019,-9.78614807129,0.376262336969
1560000125397485256,-0.0175209287554,0.0466587056357,-1.75042805495e-05,0.00226316414773,-9.59697818756,0.307013452053
1560000125401399374,-0.0175209287554,0.0439278137144,-1.75042805495e-05,0.184607341886,-9.76724243164,0.254293173552
1560000125405312538,-0.0175209287554,0.0436427742243,-1.75042805495e-05,0.305457502604,-9.7087469101,0.0917442142963
1560000125409224272,-0.0158369926247,0.0436427742243,-1.75042805495e-05,0.151023805141,-9.84949016571,-0.0433235764503
1560000125413136482,-0.0131080434054,0.0436427742243,-1.75042805495e-05,-0.106760494411,-9.79009151459,-0.127647906542
1560000125417049408,-0.01228494104,0.0415741259523,-0.000179164353264,-0.293260723352,-9.89006996155,-0.162634462118
1560000125420961380,-0.01228494104,0.0372616388637,-0.00176283356268,-0.225964874029,-9.77018165588,-0.145047008991
1560000125424875498,-0.01228494104,0.0341451573837,-0.00176283356268,0.133257210255,-9.89012908936,-0.132325142622
1560000125428789616,-0.01228494104,0.0286832596444,-0.00176283356268,0.231015861034,-9.73098564148,-0.195410996675
1560000125432702303,-0.0116748244943,0.0255793649683,-0.00237295006763,0.212426364422,-9.8108253479,-0.194438576698
1560000125436614513,-0.00894545054922,0.0244441516697,-0.00510232393702,0.172695085406,-9.79098701477,-0.213616639376
1560000125440526485,-0.0062162995713,0.0270221351485,-0.00525349192321,0.112120680511,-9.7706451416,-0.172543138266
1560000125444438457,-0.00348709099694,0.027863606334,-0.00343695883882,0.0326423421502,-9.79037857056,-0.150696665049
1560000125448351622,-0.00181296560913,0.0251333688926,-0.000706721152863,-0.0673383846879,-9.75035953522,-0.148736834526
1560000125452264309,-0.00181296560913,0.021814343493,-0.00205765959776,-0.0679830238223,-9.73023319244,-0.128933161497
1560000125456177473,-0.00181296560913,0.0149034619342,-0.00478784907554,0.0715665072203,-9.7900094986,-0.10174715519
1560000125460091591,-0.00129340958777,0.0071775205157,-0.00525349192321,0.190131485462,-9.76998996735,-0.0846118927002
1560000125464003325,-6.76363852108e-05,0.000493237205093,-0.00375001004684,0.188847467303,-9.70993423462,-0.0650720894337
1560000125467914581,-6.76363852108e-05,-0.00147400391181,-0.00276638952406,-0.00950503535569,-9.69011497498,-0.100627809763
1560000125471827507,-6.76363852108e-05,-0.0052069881438,-0.00176283356268,-0.268442451954,-9.6895608902,-0.0549750626087
1560000125475740433,-0.00103301391553,-0.0141385168998,-0.00272821103665,-0.35849955678,-9.68915748596,-0.0131025314331
1560000125479652643,-0.00335391119363,-0.0215475596016,-0.0030993953853,-0.20948754251,-9.68929100037,-0.0164380669594
1560000125483565331,-0.000624178323399,-0.0297367558925,-1.75042805495e-05,-0.0702392756939,-9.65979099274,-0.059620320797
1560000125487477541,-0.00181296560913,-0.037924172833,-1.75042805495e-05,0.00971333496273,-9.68980979919,-0.061201363802
1560000125491390705,-0.00181296560913,-0.0447025579568,-1.75042805495e-05,-0.0303481537849,-9.68961334229,-0.0403763353825
1560000125495303392,-0.0024638675885,-0.050812380769,-0.00111193156704,-0.148598670959,-9.74940013885,-0.0373121201992
1560000125499215603,-0.00519363602985,-0.0573663437495,-1.75042805495e-05,-0.189938977361,-9.66934394836,-0.0170147418976
1560000125503128529,-0.00704895332456,-0.0654457922367,-0.000891999381592,-0.208837643266,-9.68961429596,-0.0563092529774
1560000125507040501,-0.00693598056497,-0.0736332005397,-0.00187580631473,-0.129369795322,-9.70948886871,-0.0380207002163
1560000125510953665,-0.00530362408608,-0.0796281934727,-0.00350816268474,0.0683327913284,-9.72898483276,0.0374062359333
1560000125514867544,-0.00355829484761,-0.0861864257962,-0.00350816268474,0.187531888485,-9.76869678497,0.0748728215694
1560000125518780470,-0.00223620151312,-0.0916464350763,-0.00218606943844,0.208684176207,-9.82876968384,0.0548882633448
1560000125522691727,-0.00355829484761,-0.0947987242753,-0.00120234552082,0.137866467237,-9.7488489151,0.0559171438217
1560000125526604414,-0.00201385749279,-0.0959835648537,-1.75042805495e-05,-0.049923017621,-9.80857372284,0.0605379343033
1560000125530516624,-0.00181296560913,-0.0977288931608,-0.00176283356268,-0.248925417662,-9.78843212128,0.0648533850908
1560000125534429789,-6.76363852108e-05,-0.101289397101,-0.00176283356268,-0.109836995602,-9.74895000458,0.021605193615
1560000125538341522,-6.76363852108e-05,-0.108468448312,-0.00176283356268,0.030184192583,-9.8683795929,0.0790903568268
1560000125542253733,-6.76363852108e-05,-0.113927775979,-0.00176283356268,-0.0114967841655,-9.84757041931,0.179525867105
1560000125546166420,0.00116177811565,-0.119386344907,-0.00176283356268,0.0269452016801,-9.82715606689,0.238311246037
1560000125550079584,0.00167769286782,-0.128337530498,-0.00176283356268,-0.0781689807773,-9.53701305389,0.30839663744
1560000125553992748,0.00167769286782,-0.132344018407,-0.00321669184913,-0.170317277312,-9.98613071442,0.31358858943
1560000125557905436,0.00342302210629,-0.13681878954,-0.00350816268474,-0.304735988379,-9.65659713745,0.314302653074
1560000125561818600,0.00510063482213,-0.141226697669,-0.00350816268474,-0.580347299576,-9.86557483673,0.371753156185
1560000125565731764,0.0060853604934,-0.146775493586,-0.00259115359727,-0.445766150951,-9.66540431976,0.447063148022
1560000125569643497,0.00516835134476,-0.157847092799,-0.00350816268474,-0.256708413363,-9.72514533997,0.483105063438
1560000125573556662,0.00516835134476,-0.170358046092,-0.00350816268474,-2.9893592e-05,-9.66515827179,0.516798913479
1560000125577468634,0.00516835134476,-0.178771331009,-0.00312951700007,0.118514068425,-9.72435092926,0.61420416832
1560000125581382513,0.00516835134476,-0.184232635961,-0.00176283356268,-0.023941623047,-9.59380817413,0.696202278137
1560000125585295677,0.00631055230234,-0.189692280655,-0.00236596180335,-0.2397647053,-9.7237071991,0.662080705166
1560000125589208841,0.00516835134476,-0.195152363153,-0.00509600443261,-0.290399730206,-9.68357276917,0.682864308357
1560000125593121529,0.00259584082966,-0.200612356251,-0.00525349192321,-0.291531771421,-9.66320323944,0.732571363449
1560000125597035646,-6.76363852108e-05,-0.207887689377,-0.00350816268474,-0.0250736866146,-9.57344055176,0.745909333229
1560000125600949764,0.000984982784795,-0.216078491737,-0.00456078184597,0.237068533897,-9.7439365387,0.671474456787
1560000125604863882,0.00167769286782,-0.221354393754,-0.00525349192321,0.356613606215,-9.70459842682,0.608735442162
1560000125608775616,0.00167769286782,-0.216071909185,-0.00653017259859,0.119798086584,-9.78440666199,0.594664394855
1560000125612687826,0.00167769286782,-0.205623834271,-0.00925935113625,-0.506696999073,-9.76371955872,0.628477334976
1560000125616601467,0.00167769286782,-0.196202072591,-0.0119898972046,-0.992180407047,-9.80353736877,0.599766016006
1560000125620514631,0.00167769286782,-0.184788797013,-0.0147195827924,-1.01107382774,-9.80400466919,0.540403962135
1560000125624428749,0.00167769286782,-0.172859240695,-0.0174505010965,-0.464701682329,-9.82429599762,0.548241257668
1560000125628343821,0.00438876784877,-0.161933760935,-0.021927201228,0.455294579268,-9.7439699173,0.686517953873
1560000125632256508,0.00711864180376,-0.1486540444,-0.0264024057587,1.3985183239,-9.86339092255,0.815701365471
1560000125636170626,0.00746851330249,-0.129537992676,-0.0291332688387,2.2188744545,-9.68379878998,0.875799775124
1560000125640083790,0.00734327463269,-0.110859290621,-0.0288289136214,2.65497541428,-9.7827205658,1.02616000175
1560000125643996716,0.0100732339974,-0.0930653080982,-0.023368994787,2.91147041321,-9.80186462402,1.1500916481
1560000125647909641,0.00865900982171,-0.0763532278454,-0.0179086689641,2.94656085968,-9.55201911926,1.18742442131
1560000125651822805,0.00865900982171,-0.0616133521136,-0.0108113028906,2.74851250648,-9.61157417297,1.21220302582
1560000125655736923,0.00603536135074,-0.0523277145075,-0.00437517269072,2.31910157204,-9.49124145508,1.24090898037
1560000125659649611,0.0015607270125,-0.0414104941123,9.9461570866e-05,1.92877197266,-9.39042568207,1.32866406441
1560000125663561821,-6.76363852108e-05,-0.0326945484241,0.00393031596414,1.5044760704,-9.58952903748,1.35948085785
1560000125667474747,-6.76363852108e-05,-0.0251476458902,0.00521848350763,1.13821280003,-9.58984661102,1.28796613216
1560000125671387672,-0.00139318804404,-0.0143066501812,0.00389293183775,0.810721933842,-9.55010986328,1.23523366451
1560000125675300837,-0.00412294117006,-0.00471318928885,0.00290850790904,0.554541349411,-9.5707321167,1.13150143623
1560000125679213762,-0.00685297606123,0.00310824650339,0.00172782491427,0.467222601175,-9.66081619263,1.09422516823
1560000125683126688,-0.00958285001622,0.00856799419137,0.00172782491427,0.536292552948,-9.59132480621,1.05233561993
1560000125686602354,-0.0123128847146,0.0122827343347,0.00172782491427,0.776651024818,-9.6321144104,0.967520236969
1560000125690514565,-0.0140302702785,0.0177422148988,0.000715470303404,0.982107579708,-9.29403209686,0.821058750153
1560000125694427252,-0.0175209287554,0.0226988214999,-0.000269997687619,1.07232201099,-9.8441028595,0.703294098377
1560000125698339701,-0.0175209287554,0.0239355059182,-0.000526149773434,1.01116347313,-9.57590007782,0.533394813538
1560000125702251911,-0.0157755985856,0.0249201962177,0.00267991353381,0.729014098644,-9.84597396851,0.4419465065
1560000125706162453,-0.0172345041936,0.0261894818395,0.00667738833719,0.344192892313,-9.80731391907,0.250999093056
1560000125710072756,-0.0175209287554,0.0286317440237,0.0101030104823,-0.130818933249,-9.6592540741,0.00152069330215
1560000125713985443,-0.0175209287554,0.0313620713053,0.0121998004615,-0.550452947617,-10.0488300323,-0.0660873055458
1560000125717897654,-0.0166001097462,0.0260931731111,0.0121998004615,-0.743677198887,-9.76915454865,-0.0637092292309
1560000125721809149,-0.0138705907425,0.0188888056433,0.0102947916871,-0.669479072094,-9.96959114075,-0.153656750917
1560000125725721598,-0.01228494104,0.0134288923589,0.0075648355857,-0.552491486073,-9.77053546906,-0.217451184988
1560000125729633093,-0.0119022095316,0.0122268470004,0.00445302046533,-0.548665702343,-10.0497188568,-0.175733089447
1560000125733545303,-0.00917233468422,0.0163286783523,0.00036054783118,-0.475602269173,-9.70990467072,-0.119947940111
1560000125737456799,-0.00644304718771,0.0174628347158,-0.00236873965911,-0.263474076986,-9.94950675964,-0.103099018335
1560000125741369486,-0.00371281805213,0.015872027833,-0.00350816268474,-0.0495665222406,-9.68991851807,-0.0798027515411
1560000125745282650,-0.000982482352755,0.00973539721051,-0.00176283356268,0.168633207679,-9.78896713257,0.0355783104897
1560000125749195099,-6.76363852108e-05,0.00161543088087,-0.00176283356268,0.265705168247,-9.76812076569,0.152836248279
1560000125753107548,-6.76363852108e-05,-0.00384488617779,-0.00176283356268,0.364071696997,-9.76772499084,0.210419341922
1560000125757019997,0.000225886805129,-0.00522644538432,-0.00176283356268,0.382336229086,-9.68772315979,0.229382500052
1560000125760933399,0.00167769286782,-0.00522644538432,-0.000483901481388,0.283293515444,-9.78681087494,0.312008172274
1560000125764845848,0.00115906749954,-0.00574507074828,-1.75042805495e-05,0.0805831477046,-9.65589237213,0.435211628675
1560000125768758297,-6.76363852108e-05,-0.0069717746228,0.00148531200009,-0.118744194508,-9.63558864594,0.459462672472
1560000125772670746,0.000935349967101,-0.00622943172827,0.000985482038312,-0.0584789663553,-9.59635925293,0.378122240305
1560000125776583195,-6.76363852108e-05,-0.00695363787506,-1.75042805495e-05,0.130408406258,-9.68572330475,0.454233258963
1560000125780496597,-0.00103436166273,-0.00968382914686,-0.00272955878378,0.177015736699,-9.59511852264,0.552205681801
1560000125784409046,-0.00376471344784,-0.0104624330997,-0.00350816268474,0.237904578447,-9.65522670746,0.531331658363
1560000125788321495,-0.00649468783695,-0.0116534968506,-0.00231709901332,0.217396914959,-9.61528015137,0.531512618065
1560000125792232990,-0.00879428256303,-0.0126372334369,-0.00350816268474,0.376817315817,-9.6651725769,0.548220038414
1560000125796145201,-0.0102083172726,-0.0111250221575,-0.00350816268474,0.565875172615,-9.72491264343,0.584262013435
1560000125800056696,-0.00814167675928,-0.00501395716803,-0.00350816268474,0.664757966995,-9.61584186554,0.501570343971
1560000125803969145,-0.00704895332456,-9.85737553743e-05,-0.00350816268474,0.686070144176,-9.68589687347,0.48165178299
1560000125807881594,-0.00792585965602,9.54246752372e-06,-0.00263125641176,0.665866374969,-9.72532463074,0.542167186737
1560000125811792850,-0.00704895332456,0.00198483077981,-0.00164785400906,0.626784980297,-9.70580863953,0.483117908239
1560000125815705299,-0.00594916175901,0.00744511317761,-1.75042805495e-05,0.569433808327,-9.78609848022,0.425173044205
1560000125819617033,-0.00530362408608,0.0108203376462,-1.75042805495e-05,0.539301156998,-9.80571365356,0.465843260288
1560000125823529243,-0.0039807805481,0.0122268470004,-1.75042805495e-05,0.499564617872,-9.80567836761,0.4667327106
1560000125827440739,-0.00355829484761,0.0150955881418,0.00172782491427,0.498270064592,-9.78522872925,0.526407599449
1560000125831351995,-0.00355829484761,0.0190086366794,0.000182023814229,0.537367284298,-9.74533462524,0.525254249573
1560000125835263729,-0.00434255363822,0.0201692348207,-1.75042805495e-05,0.535428106785,-9.7047586441,0.604732751846
1560000125839174986,-0.00530362408608,0.0192081648856,-1.75042805495e-05,0.476132392883,-9.76427555084,0.646333992481
1560000125843086481,-0.00329066513071,0.0202146438263,-1.75042805495e-05,0.396329134703,-9.78384590149,0.688116014004
1560000125846998692,-6.76363852108e-05,0.0229446616444,0.000228335726573,0.355628222227,-9.74372005463,0.70867729187
1560000125850911379,-6.76363852108e-05,0.0244441516697,0.00172782491427,0.333978027105,-9.72301101685,0.798700213432
1560000125854823828,-0.00228303499887,0.0284048792856,0.00347315426916,0.254174739122,-9.74258041382,0.840482234955
1560000125858735085,-0.00355829484761,0.0311340537685,0.00492706880799,0.193616092205,-9.66283035278,0.821353197098
1560000125862646580,-0.0028661841511,0.0307333575578,0.00521848350763,0.153869047761,-9.70240116119,0.862377762794
1560000125866559029,-0.00181296560913,0.0313570798081,0.00354154304818,0.193605586886,-9.70243644714,0.861488223076
1560000125870470524,-6.76363852108e-05,0.0314254686236,0.00347315426916,0.152574494481,-9.68195152283,0.922052621841
1560000125874382734,-0.00181296560913,0.033325397439,0.00347315426916,0.152254804969,-9.66198635101,0.921920657158
1560000125878295422,-0.00181296560913,0.0349161289632,0.00347315426916,0.132061570883,-9.66180706024,0.942301034927
1560000125882206678,-6.76363852108e-05,0.0352940140808,0.00309526892473,0.151770010591,-9.65184307098,0.941790342331
1560000125886118174,-0.00142956924345,0.0380233923202,0.000365892078736,0.151125371456,-9.63171672821,0.961593985558
1560000125890028477,-0.00415825713652,0.0378068260535,-1.75042805495e-05,0.120353378356,-9.6114025116,1.00200033188
1560000125893940926,-0.00530362408608,0.0366614572704,-1.75042805495e-05,0.110749445856,-9.59175205231,0.962219595909
1560000125897852421,-0.00704895332456,0.0332699422953,-1.75042805495e-05,0.0926499888301,-9.66193294525,0.923254847527
1560000125901763916,-0.00711099534242,0.0296180964691,-1.75042805495e-05,0.0931453034282,-9.63247108459,0.863250255585
1560000125905676365,-0.00879428256303,0.0279348101467,-1.75042805495e-05,0.113993681967,-9.61317157745,0.782931208611
1560000125909589767,-0.0108260362104,0.0276483858906,-1.75042805495e-05,0.0950897410512,-9.65324401855,0.763704180717
1560000125913501263,-0.01228494104,0.0249190461954,0.0012529306539,0.115450702608,-9.63370132446,0.713288545609
1560000125917412519,-0.01228494104,0.022189933821,0.00347315426916,0.0959073752165,-9.63384437561,0.693797707558
1560000125921324968,-0.01228494104,0.0209534931928,0.0019794867333,0.117549739778,-9.68426036835,0.633875966072
1560000125925237656,-0.0147636312351,0.0202201322362,-1.75042805495e-05,0.129108607769,-9.68507671356,0.533975601196
1560000125929149866,-0.0157755985856,0.0174907784054,-1.75042805495e-05,0.130712330341,-9.76509666443,0.514567732811
1560000125933063269,-0.0165636510595,0.0155482803456,0.000939772880605,0.160844951868,-9.74548244476,0.473897486925
1560000125936975718,-0.0138331660039,0.0120297427258,0.00172782491427,0.181688070297,-9.74598503113,0.413645982742
1560000125940888166,-0.01228494104,0.0104815177619,0.000546530412606,0.202840358019,-9.80605697632,0.393661439419
1560000125944800615,-0.01228494104,0.0130678120424,-0.000437986924263,0.241937488317,-9.76616287231,0.392508119345
1560000125948711872,-0.01228494104,0.015717504546,-0.00176283356268,0.242262452841,-9.76632499695,0.372572511435
1560000125952624559,-0.01228494104,0.0174628347158,-0.00111879372827,0.264384359121,-9.84668731689,0.312848687172
1560000125956535816,-0.010656766088,0.0190910105366,-1.75042805495e-05,0.244039148092,-9.80681991577,0.303061783314
1560000125960449219,-0.00879428256303,0.0200859019967,-1.75042805495e-05,0.224322855473,-9.84649085999,0.333673775196
1560000125964361906,-0.00694134620282,0.0172476204724,-1.75042805495e-05,0.22399790585,-9.84632873535,0.353609353304
1560000125968273163,-0.00530362408608,0.0139721762389,-0.00110883431395,0.203820466995,-9.78673934937,0.313787132502
1560000125972187519,-0.00322649279377,0.0143039781157,-1.75042805495e-05,0.223044097424,-9.7666311264,0.333146065474
1560000125976099014,-0.000497146260263,0.015717504546,-1.75042805495e-05,0.222074508667,-9.74634361267,0.37288531661
1560000125980012417,-6.76363852108e-05,0.0180185982281,-1.75042805495e-05,0.240323275328,-9.72574996948,0.45205104351
1560000125983925819,-6.76363852108e-05,0.0192081648856,-0.0015585769748,0.240637689829,-9.7655172348,0.472250461578
1560000125987838268,-0.00181296560913,0.0225141041264,-0.00350816268474,0.180707961321,-9.76530265808,0.49352028966
1560000125991750717,-0.00181296560913,0.0279348101467,-1.75042805495e-05,0.160520002246,-9.74532032013,0.493833094835
1560000125995664120,-0.00181296560913,0.0279348101467,-1.75042805495e-05,0.179418683052,-9.72505092621,0.53312766552
1560000125999576569,-6.76363852108e-05,0.0276901346419,-0.000262179922028,0.295884609222,-9.65447235107,0.629675447941
1560000126003489017,0.00116122951702,0.0261894818395,-0.000533967639953,0.39505559206,-9.68418502808,0.667520821095
1560000126007401466,0.00610513628133,0.028403202365,-0.000485896760546,0.433343023062,-9.63398551941,0.706172704697
1560000126011313915,0.00865900982171,0.0311334150958,-0.00176283356268,0.354189604521,-9.65387916565,0.708083629608
1560000126015226364,0.00203846862609,0.030733191517,-0.00350816268474,0.2146243155,-9.65351295471,0.74110019207
1560000126019137621,-0.00174391101892,0.0296801384538,-0.00183188814886,0.137727186084,-9.74384784698,0.673698186874
1560000126023051262,-0.00355829484761,0.0270184669324,-1.75042805495e-05,0.215766906738,-9.63427448273,0.651258111
1560000126026964664,-0.00371448118739,0.026345668096,-1.75042805495e-05,0.236290335655,-9.61481285095,0.590874612331
1560000126030876875,-0.00530362408608,0.0290755636924,-1.75042805495e-05,0.235640436411,-9.61448955536,0.630745768547
1560000126034788609,-0.00568317393539,0.0296801384538,-1.75042805495e-05,0.198327869177,-9.66517353058,0.532287120819
1560000126038699865,-0.00841238265349,0.0283167098524,-1.75042805495e-05,0.129289492965,-9.61584663391,0.453771531582
1560000126042612314,-0.0111421319116,0.0279348101467,-1.75042805495e-05,0.102534674108,-9.76587772369,0.415556877851
1560000126046523571,-0.0106986257793,0.0279348101467,-1.75042805495e-05,0.00338207744062,-9.6668548584,0.307475179434
1560000126050436258,-0.00879428256303,0.0287608175836,-0.000843512178869,-0.0547709614038,-9.7071352005,0.259234249592
1560000126054348707,-0.00879428256303,0.0278699096646,-0.00176283356268,0.065078034997,-9.74717140198,0.256829679012
1560000126058260918,-0.00879428256303,0.0261894818395,-0.00281255959854,0.105469726026,-9.72772693634,0.196001499891
1560000126062173367,-0.0105396118015,0.0296801384538,-0.00525349192321,0.136896878481,-9.72856140137,0.0956564247608
1560000126066087008,-0.00926533656621,0.0296801384538,-0.00525349192321,0.148439988494,-9.78878688812,0.0559586286545
1560000126069998264,-0.00704895332456,0.0256765115581,-0.00350816268474,0.0491039082408,-9.76889514923,0.0381148159504
1560000126073910713,-0.00555179285518,0.0229469904015,-0.00350816268474,0.0100119989365,-9.78898620605,0.0192006081343
1560000126077822208,-0.00107687340246,0.0202174013728,-0.00176283356268,0.0699522793293,-9.74959564209,-0.0422042310238
1560000126081734657,-0.00178867184507,0.0174871284931,-0.00176283356268,0.108719222248,-9.72934341431,-0.00335443019867
1560000126085648060,-0.00355829484761,0.0165018964476,-0.0044691004402,0.187531888485,-9.76869678497,0.0748728215694
1560000126089560509,-0.00530362408608,0.0135719790618,-0.00525349192321,0.246492087841,-9.74862289429,0.0933422744274
1560000126093472958,-0.00411888323163,0.00811203605304,-0.00406875106876,0.267010241747,-9.74896430969,0.0530263483524
1560000126097385168,-0.00138911427902,0.00482167876942,-0.00350816268474,0.226629048586,-9.72880363464,0.0737195014954
1560000126101297855,-6.76363852108e-05,0.00350020104088,-0.00350816268474,0.205791190267,-9.70849704742,0.113903522491
1560000126105209112,0.00167769286782,0.00350020104088,-0.00350816268474,0.184623122215,-9.7078332901,0.194090619683
1560000126109121561,4.59689478924e-05,0.00186847702572,-0.00187643888726,0.223709762096,-9.70754528046,0.233072325587
1560000126113034010,-0.000938887209947,-0.00173295914835,-0.00350816268474,0.323695749044,-9.72776126862,0.211044967175
1560000126116946459,-0.00344814064335,-0.00522644538432,-0.00339800848783,0.362792909145,-9.68786716461,0.2098916471
1560000126120858908,-0.00181296560913,-0.00632141409516,-0.00176283356268,0.282664656639,-9.70727539062,0.271609306335
1560000126124770164,-0.00147967447813,-0.00763835689035,-0.00142954242056,0.22306509316,-9.68741989136,0.252875983715
1560000126128680706,-6.76363852108e-05,-0.0130958122337,-1.75042805495e-05,0.133977591991,-9.70730400085,0.255009233952
1560000126132594347,-0.000624231512384,-0.0156984198838,-0.00176283356268,0.12404345721,-9.70729541779,0.255231618881
1560000126136506557,-0.00181296560913,-0.0172400806375,-0.000221173593101,0.125327467918,-9.76735019684,0.235691785812
1560000126140419960,-0.00181296560913,-0.0224969381109,0.000946560143676,0.163774743676,-9.72713375092,0.274409651756
1560000126144331455,-0.00181296560913,-0.0261502694354,-3.7632012227e-05,0.183637753129,-9.74695491791,0.294032424688
1560000126148243904,-0.00181296560913,-0.0254295510445,-0.000758350036624,0.183318063617,-9.72699069977,0.293900519609
1560000126152155161,-0.00181296560913,-0.026413575526,-1.75042805495e-05,0.143419057131,-9.72687339783,0.304757773876
1560000126156065702,-0.00181296560913,-0.0279157254845,-1.75042805495e-05,0.133322447538,-9.72678375244,0.314947962761
1560000126159980297,-0.00181296560913,-0.0301282932692,-1.75042805495e-05,0.132347598672,-9.72629928589,0.374754726887
1560000126163892508,-0.000361213099871,-0.0314063802361,-0.00146925683823,0.140971422195,-9.76526641846,0.494409769773
1560000126167806149,-6.76363852108e-05,-0.0265321751438,-0.00281638756054,0.240648210049,-9.72591114044,0.4321154356
1560000126171718597,-0.00174410336508,-0.0227485991191,-0.00176283356268,0.319466173649,-9.7454624176,0.490275174379
1560000126175630808,-0.00181296560913,-0.0244250670075,-1.75042805495e-05,0.31817689538,-9.70520973206,0.52988255024
1560000126179542303,-6.76363852108e-05,-0.0244250670075,-1.75042805495e-05,0.338034629822,-9.74483394623,0.569572806358
1560000126183454752,-6.76363852108e-05,-0.0221473066085,-1.75042805495e-05,0.278435081244,-9.72497844696,0.550839543343
1560000126187366247,-0.00044537759973,-0.018433597385,-0.00176283356268,0.257602453232,-9.68486881256,0.570955991745
1560000126191278458,-0.000451069381794,-0.0156984198838,-0.00176283356268,0.297008812428,-9.70454502106,0.61006963253
1560000126195189953,-6.76363852108e-05,-0.0156984198838,-0.00176283356268,0.354826390743,-9.70370960236,0.718381166458
1560000126199102640,-0.00165339132747,-0.0141126657745,-0.00176283356268,0.474523454905,-9.70405864716,0.685809373856
1560000126203013897,-0.00263681146933,-0.011383916478,-1.75042805495e-05,0.535417556763,-9.74436473846,0.644867837429
1560000126206925392,-0.00530362408608,-0.00690970893701,-1.75042805495e-05,0.414111495018,-9.68379878998,0.716915071011
1560000126210837603,-0.00530362408608,-0.00313298117217,-1.75042805495e-05,0.373730301857,-9.66363716125,0.737608194351
1560000126214750290,-0.00530362408608,9.54246752372e-06,-1.75042805495e-05,0.293932288885,-9.66340351105,0.759322762489
1560000126218661547,-0.00403318911986,-0.00126089251327,-1.75042805495e-05,0.315571993589,-9.72372055054,0.709434807301
1560000126222573042,-0.00355829484761,-0.00122678066734,-1.75042805495e-05,0.433335125446,-9.66369056702,0.736274003983
1560000126226485491,-0.00355829484761,0.00150321048369,-1.75042805495e-05,0.473045378923,-9.76274013519,0.835722088814
1560000126230396986,-0.00457148099473,0.00423234403456,-1.75042805495e-05,0.431705117226,-9.68268585205,0.856019496918
1560000126234309435,-0.00184157484188,0.00867897005797,-1.75042805495e-05,0.353537112474,-9.66345691681,0.757988572121
1560000126238221645,-6.76363852108e-05,0.0141393396542,-1.75042805495e-05,0.293602108955,-9.68304538727,0.799325823784
1560000126242134333,-0.0020089055058,0.0174628347158,-1.75042805495e-05,0.253860294819,-9.7028131485,0.820282936096
1560000126246046543,-0.0047382589602,0.0151029064907,-1.75042805495e-05,0.234641939402,-9.70311832428,0.780856370926
1560000126249958992,-0.00530362408608,0.0100620263754,-1.75042805495e-05,0.293927043676,-9.6832075119,0.779390215874
1560000126253871679,-0.00530362408608,0.00873618852347,-1.75042805495e-05,0.314439982176,-9.70335102081,0.759141921997
1560000126257783890,-0.00530362408608,0.0128701171146,-1.75042805495e-05,0.353531837463,-9.68326091766,0.778056025505
1560000126261696339,-0.0069318108856,0.0172285498379,-1.75042805495e-05,0.294246733189,-9.70317173004,0.779522180557
1560000126265608788,-0.00704895332456,0.0183302587985,-1.75042805495e-05,0.194915890694,-9.66347694397,0.741610884666
1560000126269520283,-0.00694299912036,0.0173568804551,-1.75042805495e-05,0.156306177378,-9.70361328125,0.712860822678
1560000126273431540,-0.00530362408608,0.0135380477723,-1.75042805495e-05,0.12747861445,-9.70407104492,0.653721094131
1560000126277343988,-0.00530362408608,0.0125558118851,-1.75042805495e-05,0.128128513694,-9.70439434052,0.613849878311
1560000126281257629,-0.00661827670419,0.0152868281555,0.00129714830468,0.157936170697,-9.68461894989,0.593115329742
1560000126285169840,-0.00879428256303,0.0174628347158,0.00172782491427,0.178758263588,-9.7643327713,0.613133847713
1560000126289081335,-0.00879428256303,0.0174628347158,0.000190245430761,0.139687404037,-9.7052116394,0.513949632645
1560000126292992592,-0.00879428256303,0.0192081648856,-0.000793409820155,0.121118910611,-9.70584011078,0.434651970863
1560000126296905279,-0.00703364523109,0.019192856784,-0.00349285459229,0.101234875619,-9.76523113251,0.495299249887
1560000126300819635,-0.00530362408608,0.0164613449945,-0.00176283356268,0.140651732683,-9.74530220032,0.494277834892
1560000126304732084,-0.00728941880217,0.0137317107613,-0.00176283356268,0.220449760556,-9.74553585052,0.472563266754
1560000126308644533,-0.00879428256303,0.0110014740343,-0.000537460565941,0.240323275328,-9.72574996948,0.45205104351
1560000126312556982,-0.00658405329236,0.00873618852347,-0.00176283356268,0.240642994642,-9.74571418762,0.452182978392
1560000126316468239,-0.00385536469845,0.00728792913584,-0.00176283356268,0.220124810934,-9.74537372589,0.492498874664
1560000126320381880,-0.00355829484761,0.00767947684776,-1.75042805495e-05,0.200251281261,-9.76515865326,0.513011157513
1560000126324293137,-0.0052309089264,0.0120814166811,-1.75042805495e-05,0.160530522466,-9.70571422577,0.453698068857
1560000126328205585,-0.00530362408608,0.0148841927084,-0.000929521259567,0.180707961321,-9.76530265808,0.49352028966
1560000126332118273,-0.00355829484761,0.0139721762389,-0.00176283356268,0.200256541371,-9.74535560608,0.492943614721
1560000126336029530,-0.00355829484761,0.0139721762389,-0.000627678906599,0.200586751103,-9.72571468353,0.452940523624
1560000126339942932,-0.00355829484761,0.0122268470004,-1.75042805495e-05,0.200246021152,-9.78496170044,0.533078670502
1560000126343855381,-0.00355829484761,0.0108670768459,-1.75042805495e-05,0.178459584713,-9.66515636444,0.532731890678
1560000126347767830,-0.00530362408608,0.0128257642374,-0.00236175075974,0.159225463867,-9.72487163544,0.55350792408
1560000126351680279,-0.00371997029569,0.0139721762389,-0.00350816268474,0.139037504792,-9.70488834381,0.553820729256
1560000126355591536,-0.00191342045533,0.0131497390393,-0.000940396342541,0.128778412938,-9.70471763611,0.573978722095
1560000126359505177,-6.76363852108e-05,0.0103557691332,-1.75042805495e-05,0.138387605548,-9.70456504822,0.593691945076
1560000126363417387,-0.00216123342725,0.00594406075961,-1.75042805495e-05,0.218190863729,-9.68499565125,0.551909923553
1560000126367329836,-0.00559004919265,0.00524553004652,-1.75042805495e-05,0.276026844978,-9.61484909058,0.589985132217
1560000126371242523,-0.00704895332456,0.00397414233506,-1.75042805495e-05,0.237063258886,-9.7637386322,0.691542029381
1560000126375154734,-0.00479331491456,0.00350020104088,-1.75042805495e-05,0.257453143597,-9.63527965546,0.53075504303
1560000126379068136,-0.00355829484761,0.00350020104088,-1.75042805495e-05,0.15908138454,-9.65547943115,0.493239432573
1560000126382979631,-0.00429260078033,0.00175487168599,-0.00176283356268,0.179738372564,-9.74501514435,0.533259510994
1560000126386892080,-0.00530362408608,0.00347375382383,-0.00176283356268,0.219810381532,-9.70560646057,0.472299426794
1560000126390803576,-0.00704895332456,0.00350020104088,-0.00272027748588,0.279090225697,-9.7054977417,0.490900814533
1560000126394716978,-0.00530362408608,0.00369763806819,-0.00350816268474,0.260516494513,-9.72592926025,0.431670725346
1560000126398629427,-0.00648570239138,0.00524553004652,-0.00232608445829,0.221435129642,-9.70641422272,0.37262147665
1560000126402540684,-0.00662846999344,0.00524553004652,-1.75042805495e-05,0.161819800735,-9.74596691132,0.414090722799
1560000126406451225,-0.00389977626571,0.00384168241343,-1.75042805495e-05,0.132342338562,-9.74610137939,0.394822239876
1560000126410363674,-0.00420124942948,0.00524553004652,-0.000660458878503,0.122413463891,-9.72629070282,0.374977111816
1560000126414277077,-0.00530362408608,0.00524553004652,-0.00176283356268,0.162469699979,-9.74629020691,0.374219536781
1560000126418189526,-0.00704895332456,0.00524553004652,-1.75042805495e-05,0.181698590517,-9.70637893677,0.373510956764
1560000126422101974,-0.00704895332456,0.00360702686863,-1.75042805495e-05,0.222394198179,-9.76630783081,0.373017251492
1560000126426014423,-0.00595731170675,0.00524553004652,-1.75042805495e-05,0.261161148548,-9.74605560303,0.411867022514
1560000126429926872,-0.0038894630417,0.006990859285,-1.75042805495e-05,0.262141257524,-9.72673797607,0.331992745399
1560000126433839083,-0.00398843097842,0.00567566617733,-0.00264789044105,0.281679302454,-9.74639701843,0.371551096439
1560000126437752724,-0.00355829484761,0.00580113440846,-0.00295255835986,0.260841459036,-9.72609138489,0.411735117435
1560000126441663980,-0.00509795804124,0.0100701856723,-0.00176283356268,0.261486083269,-9.74621677399,0.391931444407
1560000126445577383,-0.00277872875705,0.0104815177619,-1.75042805495e-05,0.341619580984,-9.70700550079,0.310146272182
1560000126449489117,-0.0035765914175,0.00873618852347,-0.00176283356268,0.360837936401,-9.70669937134,0.349572718143
1560000126453401327,-0.00530362408608,0.00973889167682,-0.00176283356268,0.321096152067,-9.72646808624,0.370529711246
1560000126457313776,-0.00530362408608,0.0124686949635,-1.75042805495e-05,0.300913453102,-9.68668174744,0.350775003433
1560000126461226225,-0.00530362408608,0.015198798351,-0.00124412707785,0.241942793131,-9.74636077881,0.372440576553
1560000126465138674,-0.00309238554824,0.0169969251679,-0.00129692425166,0.202704176307,-9.70696163177,0.303291648626
1560000126469048977,-0.00181296560913,0.0128193233463,-1.75042805495e-05,0.182516187429,-9.6869802475,0.303604453802
1560000126472962379,-0.00181296560913,0.0097922353387,-0.000706786721041,0.143099367619,-9.70690822601,0.304625868797
1560000126476875067,-0.00348660572502,0.00873618852347,-8.91934049273e-05,0.133642137051,-9.74674797058,0.31507986784
1560000126480788231,-0.00181296560913,0.00873618852347,-1.75042805495e-05,0.162805169821,-9.70684528351,0.314148902893
1560000126484698772,-0.00181296560913,0.00888745670987,-1.75042805495e-05,0.162647932768,-9.68696212769,0.304049193859
1560000126488612413,-0.00181296560913,0.0104815177619,-1.75042805495e-05,0.182673439384,-9.70686340332,0.313704192638
1560000126492524624,-0.00181296560913,0.00661444848595,-0.00176283356268,0.162480220199,-9.70668411255,0.334084510803
1560000126496437073,-0.00045236386715,0.0038849284747,-0.00312343522525,0.142936900258,-9.7068271637,0.31459364295
1560000126500346422,-6.76363852108e-05,0.00409816703424,-0.00350816268474,0.124357886612,-9.74706268311,0.275431036949
1560000126504259109,-0.00323348884681,0.00682845628392,-0.00350816268474,0.133647382259,-9.72694587708,0.295012354851
1560000126508174419,-0.00612763598698,0.0061668473841,-0.00176283356268,0.163444548845,-9.74677467346,0.314412772655
1560000126512086868,-0.00698541417511,0.00337312273848,-0.00176283356268,0.182343229651,-9.72650527954,0.353707283735
1560000126515997410,-0.00530362408608,9.54246752372e-06,-0.00176283356268,0.182348489761,-9.70670223236,0.333639770746
1560000126519908667,-0.00327320015966,-0.00348111591302,-0.00322306801581,0.183155596256,-9.72690963745,0.303868293762
1560000126523822069,-0.000542531161518,-0.00348111591302,-0.000492399072695,0.162805169821,-9.70684528351,0.314148902893
1560000126527733326,-0.00232185355967,-0.00348111591302,-1.75042805495e-05,0.163444548845,-9.74677467346,0.314412772655
1560000126531645060,-0.00355829484761,-0.00497428532572,-1.75042805495e-05,0.143738746643,-9.74683761597,0.304889708757
1560000126535557270,-0.00355829484761,-0.0084360608055,-1.75042805495e-05,0.143419057131,-9.72687339783,0.304757773876
1560000126539468765,-0.00355829484761,-0.0121784875473,-0.00173355877106,0.163449794054,-9.72697257996,0.294345259666
1560000126543381453,-0.00181296560913,-0.0174437500536,-1.75042805495e-05,0.144220903516,-9.76688289642,0.295053839684
1560000126547293663,-0.00200807390696,-0.0195792966109,-1.75042805495e-05,0.143738746643,-9.74683761597,0.304889708757
1560000126551205158,-0.00237966115364,-0.0238583711606,-0.001196138004,0.163287326694,-9.72689151764,0.304313033819
1560000126555117369,-6.76363852108e-05,-0.026588557755,-0.00176283356268,0.164419382811,-9.74726009369,0.254605978727
1560000126559030056,-6.76363852108e-05,-0.0279157254845,-0.00316588576971,0.183155596256,-9.72690963745,0.303868293762
1560000126562942266,-6.76363852108e-05,-0.0303029305649,-0.00112095574579,0.203181087971,-9.74680995941,0.313523292542
1560000126566853762,-6.76363852108e-05,-0.0330324061462,-1.75042805495e-05,0.202861398458,-9.72684574127,0.31339135766
1560000126570765018,-6.76363852108e-05,-0.0357611382891,-1.75042805495e-05,0.182993128896,-9.72682857513,0.313836097717
1560000126574679613,-6.76363852108e-05,-0.0383877009153,-0.000122792929238,0.162150010467,-9.72632598877,0.374087631702
1560000126578591108,-6.76363852108e-05,-0.0383877009153,-0.00285206245984,0.1611751616,-9.72584056854,0.433894395828
1560000126582503319,-6.76363852108e-05,-0.0401330292225,-0.00317998812885,0.160200312734,-9.72535610199,0.493701159954
1560000126586416006,-6.76363852108e-05,-0.0401330292225,-0.00176283356268,0.160520002246,-9.74532032013,0.493833094835
1560000126590327501,-6.76363852108e-05,-0.0418783575296,-1.75042805495e-05,0.157461896539,-9.63486766815,0.572849869728
1560000126594238758,0.00146778113209,-0.0418783575296,-1.75042805495e-05,0.127483859658,-9.68426895142,0.633653640747
1560000126598150253,0.00167769286782,-0.0418783575296,-0.000791949251371,0.0561629459262,-9.66351413727,0.724788427353
1560000126602063656,0.00166371570038,-0.0436376629966,-0.00352213985205,0.076838336885,-9.6837387085,0.694572210312
1560000126605976105,-6.76363852108e-05,-0.0463678440926,-0.00525349192321,0.127483859658,-9.68426895142,0.633653640747
1560000126609889746,-0.00157377908627,-0.0473535325736,-0.00350816268474,0.195880234241,-9.70356750488,0.721939086914
1560000126613801003,-6.76363852108e-05,-0.0488596744835,-0.00228561688599,0.175037115812,-9.70306587219,0.782190561295
1560000126617713451,-6.76363852108e-05,-0.0528124063355,-0.00176283356268,0.155823990703,-9.68356800079,0.722696661949
1560000126621623755,-6.76363852108e-05,-0.0540956631303,-0.00176283356268,0.0566503703594,-9.66375637054,0.694885015488
1560000126625536203,-6.76363852108e-05,-0.0547801216359,-0.00350816268474,0.0364571586251,-9.66357707977,0.715265393257
1560000126629450798,-6.76363852108e-05,-0.0608533426651,-0.00350816268474,0.136437907815,-9.70359516144,0.713305473328
1560000126633363008,-6.76363852108e-05,-0.0663873470143,-0.00176283356268,0.176824346185,-9.70395469666,0.672544836998
1560000126637274504,-0.000216005617513,-0.0682066661924,-0.00161446432543,0.218164592981,-9.78400993347,0.652247488499
1560000126641186953,-0.00181296560913,-0.0720698233841,-1.75042805495e-05,0.177799195051,-9.70443916321,0.612738072872
1560000126645098448,-0.00355829484761,-0.0750396102667,-1.75042805495e-05,0.0999350696802,-9.76458454132,0.575041651726
1560000126649010658,-0.00220216624336,-0.0750396102667,-1.75042805495e-05,0.0791024789214,-9.72447681427,0.595158100128
1560000126652923346,-0.00121743327889,-0.0750396102667,-1.75042805495e-05,0.060518220067,-9.78451442719,0.576063036919
1560000126656835794,-6.76363852108e-05,-0.0781999365099,-0.0015976649121,0.0803970173001,-9.74492549896,0.535483241081
1560000126660748005,-6.76363852108e-05,-0.0836592667089,-0.000836672619683,0.130057170987,-9.78457641602,0.574506402016
1560000126664660692,-9.05959045346e-06,-0.0873154926303,-0.00176283356268,0.129423052073,-9.72484493256,0.554175078869
1560000126668571949,0.00167769286782,-0.0900449834565,-0.00176283356268,0.0986457914114,-9.72433280945,0.614648938179
1560000126672484398,0.00167769286782,-0.0904658637644,-0.00176283356268,-0.0599806755781,-9.74415493011,0.618338763714
1560000126676395655,0.00167769286782,-0.0902678692693,-0.00176283356268,-0.200033426285,-9.7435464859,0.681258678436
1560000126680308342,0.00117237377882,-0.0957541929919,-1.75042805495e-05,-0.327877402306,-9.7440776825,0.604407191277
1560000126684220791,-6.76363852108e-05,-0.102453238766,-0.00150701376148,-0.328191816807,-9.7043094635,0.584207653999
1560000126690988064,-6.76363852108e-05,-0.109374286911,-0.00176283356268,-0.368908464909,-9.7235918045,0.664971470833
1560000126694902420,0.00164692454447,-0.118580535377,-0.0034773943637,-0.410426974297,-9.70286464691,0.755439162254
1560000126698815584,0.00167769286782,-0.12756049191,-0.00446132459103,-0.411076873541,-9.70254135132,0.795310378075
1560000126702729940,0.00342302210629,-0.133212554132,-0.00506113681193,-0.35245218873,-9.72191333771,0.873850464821
1560000126706644297,0.00224599731759,-0.14140254651,-0.00233113797455,-0.292522400618,-9.72212791443,0.852580666542
1560000126710557699,0.00126206709704,-0.149590324056,-0.00217845930227,-0.263029158115,-9.66258335114,0.811646580696
1560000126714471817,-6.76363852108e-05,-0.157780002209,-0.00350816268474,-0.204399228096,-9.66215229034,0.870119214058
1560000126718385220,-6.76363852108e-05,-0.165328727115,-0.00525349192321,-0.145129859447,-9.70164966583,0.928855538368
1560000126722299576,-6.76363852108e-05,-0.172411965521,-0.00525349192321,-0.0467528477311,-9.66164779663,0.946303606033
1560000126726212978,-6.76363852108e-05,-0.177993424501,-0.00525349192321,0.0545276924968,-9.70231246948,0.864601373672
1560000126730127096,-6.76363852108e-05,-0.183452280376,-0.00340704235732,0.125030964613,-9.74246501923,0.843373060226
1560000126734040499,0.00101766693412,-0.187825999161,-0.00176283356268,0.11639136821,-9.76290607452,0.783920645714
1560000126737953901,0.00167769286782,-0.188486024737,-0.00383181500114,-0.0630440413952,-9.65350627899,0.717423081398
1560000126741868258,0.00167769286782,-0.188486024737,-0.00525349192321,-0.238810896873,-9.80340385437,0.682543992996
1560000126745781422,-6.76363852108e-05,-0.189684212698,-0.0058006325616,-0.346131414175,-9.78447341919,0.545308947563
1560000126749695778,-6.76363852108e-05,-0.18542213686,-0.00853076591793,-0.483914762735,-9.8047990799,0.488747239113
1560000126753609180,0.00147320023502,-0.179963860816,-0.013005227184,-0.504763126373,-9.82409954071,0.569066286087
1560000126757523537,0.00516835134476,-0.172738154569,-0.0140000883828,-0.48456466198,-9.8044757843,0.528618454933
1560000126761437654,0.00516835134476,-0.161820626792,-0.0174707975239,-0.217946723104,-9.72469520569,0.54202234745
1560000126765352964,0.00516835134476,-0.152876690085,-0.019684628766,0.258220821619,-9.80400943756,0.651489973068
1560000126769267321,0.00516835134476,-0.14468663547,-0.0239257217422,0.683790206909,-9.70456790924,0.641268491745
1560000126773180723,0.00516835134476,-0.136499385564,-0.0239947511683,0.943681418896,-9.78482055664,0.616078972816
1560000126777093649,0.00516835134476,-0.132635489106,-0.0212656490583,1.03214538097,-9.6655960083,0.55347931385
1560000126781008005,0.00516835134476,-0.126719031821,-0.0192161276937,1.01195204258,-9.6654176712,0.57385969162
1560000126784921408,0.00849741200333,-0.123989631535,-0.0175515964762,0.960656702518,-9.66456413269,0.674649477005
1560000126788835764,0.00775492336572,-0.126558254669,-0.0157254673541,0.760530114174,-9.59434890747,0.698570728302
1560000126792749882,0.00502548487033,-0.129144832492,-0.0138372716412,0.453221797943,-9.59439659119,0.665592908859
1560000126796663284,0.00342302210629,-0.130271864092,-0.0122348088771,0.253899723291,-9.55429077148,0.669776439667
1560000126800576687,-6.76363852108e-05,-0.129144832492,-0.011868885093,0.125691384077,-9.70318222046,0.763366937637
1560000126804490089,-0.00141763029531,-0.130494825693,-0.00913948571728,-0.00424634851515,-9.63335227966,0.745860338211
1560000126808404207,-0.00122392942575,-0.131479196673,-0.0110785158269,-0.0213578063995,-9.65451145172,0.596920013428
1560000126812317610,-6.76363852108e-05,-0.132635489106,-0.0138080003443,0.0571509450674,-9.61449146271,0.614812850952
1560000126816232920,-6.76363852108e-05,-0.130077037798,-0.0147932615505,0.138052135706,-9.74400901794,0.653762578964
1560000126820147276,-0.00181296560913,-0.127347133805,-0.0157254673541,0.157142207026,-9.61490345001,0.572717964649
1560000126824060440,-0.00284911970949,-0.125654160976,-0.0167616220073,0.219820857048,-9.66599941254,0.432164430618
1560000126827974796,-0.00557904465962,-0.125929583754,-0.0174707975239,0.418668687344,-9.65635681152,0.407715469599
1560000126831888199,-0.00704895332456,-0.12865904004,-0.0162112603248,0.706588208675,-9.68623828888,0.441335856915
1560000126835802555,-0.00879428256303,-0.129144832492,-0.0169721316614,0.945966601372,-9.74634552002,0.436394780874
1560000126839715719,-0.00731163422425,-0.127662184944,-0.0142428190153,0.948241233826,-9.74747657776,0.29684561491
1560000126843628168,-0.00632856617437,-0.121747669297,-0.0129551960273,0.849230110645,-9.72774600983,0.259066194296
1560000126847543478,-0.00530362408608,-0.113556047617,-0.0139801381156,0.710456073284,-9.80699539185,0.322513818741
1560000126851456881,-0.0043590613628,-0.110746964849,-0.0139801381156,0.80786883831,-9.72690296173,0.359633624554
1560000126855370045,-0.00530362408608,-0.109580966613,-0.0122348088771,0.965525627136,-9.68679237366,0.395683079958
1560000126859283209,-0.00530362408608,-0.104121225104,-0.0110676522239,1.11516129971,-9.78626441956,0.452813923359
1560000126863197565,-0.00396474574758,-0.0965095411116,-0.00833769950019,1.21242451668,-9.65658283234,0.449732720852
1560000126867111921,-0.00391308023296,-0.0855401867477,-0.00560827730857,1.29397571087,-9.78642463684,0.448811292648
1560000126871025085,-0.00530362408608,-0.0737810722731,-0.00350816268474,1.42246949673,-9.78621673584,0.485791683197
1560000126874939442,-0.00530362408608,-0.0683207445132,-0.00350816268474,1.49792015553,-9.63574314117,0.582701265812
1560000126878852844,-0.00270558843809,-0.0602641868025,-0.0026554563321,1.57882142067,-9.76526165009,0.621651053429
1560000126882767200,-0.00190490347264,-0.0519825831729,-1.75042805495e-05,1.57722294331,-9.66543865204,0.620991408825
1560000126886680365,-0.00355829484761,-0.0399903258554,-1.75042805495e-05,1.47755658627,-9.66518783569,0.643150687218
1560000126890594721,-0.00530362408608,-0.0284013967878,0.000297409962525,1.53603196144,-9.63497066498,0.681489765644
1560000126894509077,-0.00530362408608,-0.017480670831,0.00302759150265,1.47430980206,-9.65367031097,0.832472801208
1560000126898423433,-0.00530362408608,-0.00481564389744,0.00575751617844,1.39484715462,-9.61399364471,0.794116735458
1560000126902336597,-0.00530362408608,0.00610106821651,0.00848669421311,1.22643601894,-9.68339633942,0.838230013847
1560000126906250000,-0.00704895332456,0.0120050650786,0.00870914198458,1.12740373611,-9.74287796021,0.880720615387
1560000126910164356,-0.0070496181218,0.0174654939048,0.00870914198458,1.14553463459,-9.55387783051,0.799280285835
1560000126914078712,-0.00977983316938,0.0274008029629,0.00870914198458,1.22803449631,-9.78321933746,0.838889598846
1560000126917991877,-0.0120606434842,0.0355890217504,0.00870914198458,1.32414186001,-9.72228336334,0.975819349289
1560000126921906233,-0.0105396118015,0.0449867696522,0.00991780499513,1.36680305004,-9.72377300262,0.795509457588
