#timestamp [ns],w_RS_S_x [rad s^-1],w_RS_S_y [rad s^-1],w_RS_S_z [rad s^-1],a_RS_S_x [m s^-2],a_RS_S_y [m s^-2],a_RS_S_z [m s^-2]1560244286268437147,0.0,0.0,0.0,0.219799861312,-9.74521255493,0.512434482574
1560244286272355318,-0.00530362408608,9.54246752372e-06,-0.00176283356268,0.219789341092,-9.78481864929,0.552569508553
1560244286276273012,-0.00530362408608,9.54246752372e-06,-0.00176283356268,0.219789341092,-9.78481864929,0.552569508553
1560244286280189991,-0.00530362408608,9.54246752372e-06,-0.00176283356268,0.219789341092,-9.78481864929,0.552569508553
1560244286284107685,-0.00530362408608,9.54246752372e-06,-0.00176283356268,0.219789341092,-9.78481864929,0.552569508553
1560244286288024664,-0.00530362408608,9.54246752372e-06,-0.00176283356268,0.219789341092,-9.78481864929,0.552569508553
1560244286295860291,-0.00355829484761,0.00175487168599,-0.00302569551392,0.218819752336,-9.76453018188,0.592308759689
1560244286299777031,-0.00305554406484,9.54246752372e-06,-0.00126008276734,0.258561551571,-9.74476242065,0.571351766586
1560244286303694963,-0.00181296560913,9.54246752372e-06,-1.75042805495e-05,0.23772367835,-9.72445678711,0.611535787582
1560244286307612896,-0.00181296560913,0.00175487168599,-0.00249257457043,0.257916897535,-9.72463703156,0.591155469418
1560244286311530828,-0.00181296560913,3.88033161273e-05,-0.00179209440967,0.259211450815,-9.74508571625,0.531480610371
1560244286315448761,-0.00181296560913,-0.000947246580394,-0.000806044501799,0.219794601202,-9.76501464844,0.532501995564
1560244286319365501,-0.00530362408608,-0.00173578679096,-0.00176283356268,0.238373577595,-9.7247800827,0.571664571762
1560244286323283434,-0.00530362408608,-0.00173578679096,-0.00294577551067,0.219144701958,-9.76469135284,0.572373151779
1560244286327201128,-0.00530362408608,9.54246752372e-06,-0.00133888734963,0.259211450815,-9.74508571625,0.531480610371
1560244286331119061,-0.00530362408608,0.00141953228148,-1.75042805495e-05,0.240312755108,-9.76535511017,0.492186069489
1560244286335035801,-0.00639923445056,0.00110515281945,-1.75042805495e-05,0.239987790585,-9.76519393921,0.512121677399
1560244286338953972,-0.00530362408608,9.54246752372e-06,-1.75042805495e-05,0.220439240336,-9.78514194489,0.512698292732
1560244286342870712,-0.00268214043563,-0.00261194114449,-1.75042805495e-05,0.240632474422,-9.78532028198,0.49231800437
1560244286346787691,-6.76363852108e-05,-0.00324811789004,-1.75042805495e-05,0.239987790585,-9.76519393921,0.512121677399
1560244286350705385,-0.00117006302186,0.00111196910073,-1.75042805495e-05,0.259216696024,-9.72528362274,0.511413097382
1560244286354623318,-0.00355829484761,0.00315655214429,-1.75042805495e-05,0.220444500446,-9.76533794403,0.492630809546
1560244286358540058,-0.00355829484761,0.00175487168599,-1.75042805495e-05,0.259856075048,-9.76521205902,0.511676907539
1560244286362457991,-0.00355829484761,9.54246752372e-06,-0.000587143197441,0.219799861312,-9.74521255493,0.512434482574
1560244286366374731,-0.00355829484761,0.00156458413214,-0.00176283356268,0.259536385536,-9.74524784088,0.51154500246
1560244286370291710,-0.00435368110332,0.00429558719048,-0.000967447287073,0.240307509899,-9.78515911102,0.512253642082
1560244286374208450,-0.00530362408608,0.00346528774559,-1.75042805495e-05,0.199601382017,-9.76483535767,0.552882313728
1560244286378126383,-0.00428199634943,0.000733243961051,-1.75042805495e-05,0.219794601202,-9.76501464844,0.532501995564
1560244286382043123,-0.00355829484761,9.54246752372e-06,-1.75042805495e-05,0.240307509899,-9.78515911102,0.512253642082
1560244286385960102,-0.00355829484761,0.00250301287045,-1.75042805495e-05,0.239993095398,-9.74539089203,0.492054134607
1560244286389878035,-0.003070360468,0.004757595732,-1.75042805495e-05,0.220444500446,-9.76533794403,0.492630809546
1560244286393795013,-0.000340022147166,0.00497314431863,-1.75042805495e-05,0.259211450815,-9.74508571625,0.531480610371
1560244286397712708,-0.00181296560913,0.00524553004652,-1.75042805495e-05,0.239343196154,-9.74506759644,0.531925320625
1560244286401629686,-0.00351242603115,0.00184660931585,-1.75042805495e-05,0.198967263103,-9.70510292053,0.532550930977
1560244286405547380,-0.00355829484761,9.54246752372e-06,-1.75042805495e-05,0.239668130875,-9.74522972107,0.511989712715
1560244286409464359,-0.00530362408608,9.54246752372e-06,-1.75042805495e-05,0.23934841156,-9.72526550293,0.511857867241
1560244286413382053,-0.00413718994334,9.54246752372e-06,-1.75042805495e-05,0.219149962068,-9.74488925934,0.552305698395
1560244286417299032,-0.00396478439659,0.00175487168599,-1.75042805495e-05,0.218825012445,-9.7447271347,0.5722412467
1560244286421215773,-0.00669546705126,0.00036302873677,-1.75042805495e-05,0.239343196154,-9.74506759644,0.531925320625
1560244286425132751,-0.00467143686531,9.54246752372e-06,-1.75042805495e-05,0.240312755108,-9.76535511017,0.492186069489
1560244286429049492,-0.00194064798235,9.54246752372e-06,-1.75042805495e-05,0.219805121422,-9.72540950775,0.492366939783
1560244286432966471,-0.00441599677643,0.00175487168599,-0.000875206230824,0.220769450068,-9.76550006866,0.472695201635
1560244286436884165,-0.00530362408608,0.00350020104088,-0.00166474395921,0.200581490993,-9.74551773071,0.473008036613
1560244286440801382,-0.00530362408608,0.00241630865115,-1.75042805495e-05,0.240637689829,-9.7655172348,0.472250461578
1560244286444719076,-0.00355829484761,9.54246752372e-06,-1.75042805495e-05,0.241282373667,-9.78564357758,0.452446818352
1560244286448636055,-0.00355829484761,9.54246752372e-06,-1.75042805495e-05,0.221414089203,-9.78562641144,0.452891558409
1560244286452553749,-0.00355829484761,0.00175487168599,-0.0012119830989,0.220764189959,-9.78530311584,0.492762714624
1560244286456470728,-0.00355829484761,0.00329130008866,-1.75042805495e-05,0.200901180506,-9.76548194885,0.473139941692
1560244286460388422,-0.00278109738769,0.00427739839712,-1.75042805495e-05,0.220764189959,-9.78530311584,0.492762714624
1560244286464305401,-0.00355829484761,0.00350020104088,-0.00178028356381,0.220444500446,-9.76533794403,0.492630809546
1560244286468223095,-0.004561634728,0.00350020104088,-0.00350816268474,0.221739023924,-9.7857875824,0.432955950499
1560244286472140074,-0.00506022879944,0.00151147640214,-0.00176283356268,0.240312755108,-9.76535511017,0.492186069489
1560244286476056814,-0.00355829484761,9.54246752372e-06,-0.000534023385641,0.220769450068,-9.76550006866,0.472695201635
1560244286479973793,-0.00355829484761,0.00047887619445,-0.000486838024595,0.220774710178,-9.74569702148,0.452627718449
1560244286483890533,-0.00210363285003,0.00320953378059,-0.00176283356268,0.240957409143,-9.78548240662,0.47238239646
1560244286487807512,-0.00355829484761,0.00280576034167,-0.00106839289243,0.220119550824,-9.76517677307,0.512566447258
1560244286491724253,-0.00355829484761,7.51873483918e-05,-1.75042805495e-05,0.220444500446,-9.76533794403,0.492630809546
1560244286495641470,-0.0026380996397,9.54246752372e-06,-0.00176283356268,0.220119550824,-9.76517677307,0.512566447258
1560244286499558210,-0.00197333917424,0.000169916030793,-0.00160245999356,0.221089139581,-9.78546524048,0.472827136517
1560244286503473759,-0.00355829484761,0.000610049983911,-1.75042805495e-05,0.21947491169,-9.7450504303,0.532370090485
1560244286507389784,-0.00530362408608,9.54246752372e-06,-0.00176283356268,0.220124810934,-9.74537372589,0.492498874664
1560244286511306524,-0.00530362408608,9.54246752372e-06,-0.00176283356268,0.220124810934,-9.74537372589,0.492498874664
1560244286515223742,-0.00530362408608,9.54246752372e-06,-0.00176283356268,0.239668130875,-9.74522972107,0.511989712715
1560244286519140482,-0.00530362408608,9.54246752372e-06,-0.000167465203551,0.239993095398,-9.74539089203,0.492054134607
1560244286523057461,-0.00355829484761,9.54246752372e-06,-0.000853274650033,0.240957409143,-9.78548240662,0.47238239646
1560244286526973248,-0.00355829484761,0.00167958727173,-0.00350816268474,0.240637689829,-9.7655172348,0.472250461578
1560244286530889988,-0.00461882594354,9.54246752372e-06,-0.00244763165954,0.240637689829,-9.7655172348,0.472250461578
1560244286534806967,-0.00355829484761,0.000310128966259,-0.00176283356268,0.220124810934,-9.74537372589,0.492498874664
1560244286538723707,-0.00484427441903,0.00175487168599,-0.000476853959088,0.240967929363,-9.74587535858,0.432247370481
1560244286542640686,-0.00530362408608,0.00122859740196,-1.75042805495e-05,0.240962654352,-9.76567840576,0.452314913273
1560244286546557426,-0.00530362408608,9.54246752372e-06,-1.75042805495e-05,0.221099644899,-9.74585819244,0.432692110538
1560244286550474405,-0.00530362408608,0.00175487168599,-0.00251463173954,0.240642994642,-9.74571418762,0.452182978392
1560244286554392099,-0.00356594011505,0.00349255577292,-0.00177047882961,0.221414089203,-9.78562641144,0.452891558409
1560244286558309078,-0.00355829484761,9.54246752372e-06,-1.75042805495e-05,0.240642994642,-9.74571418762,0.452182978392
1560244286562226772,-0.0037771671162,-0.00151691451986,-0.00176283356268,0.240642994642,-9.74571418762,0.452182978392
1560244286566144705,-0.00530362408608,9.54246752372e-06,-0.00176283356268,0.241607308388,-9.78580474854,0.432511210442
1560244286570062399,-0.00530362408608,0.00220026462397,-1.75042805495e-05,0.221094399691,-9.76566123962,0.452759623528
1560244286573980570,-0.00387189579968,0.00350020104088,-1.75042805495e-05,0.240642994642,-9.74571418762,0.452182978392
1560244286577897549,-0.00181296560913,0.00282853683404,-1.75042805495e-05,0.240637689829,-9.7655172348,0.472250461578
1560244286581815243,-0.00181296560913,0.00341308442674,-1.75042805495e-05,0.240967929363,-9.74587535858,0.432247370481
1560244286585732222,-0.00181296560913,0.000856603659899,-0.00266110153915,0.241282373667,-9.78564357758,0.452446818352
1560244286589649916,-0.00181296560913,9.54246752372e-06,-0.00350816268474,0.241287589073,-9.76583957672,0.432379305363
1560244286593566895,-0.00293730161224,9.54246752372e-06,-0.00238382675662,0.240957409143,-9.78548240662,0.47238239646
1560244286597483635,-0.00355829484761,0.00175487168599,-1.75042805495e-05,0.220774710178,-9.74569702148,0.452627718449
1560244286601401567,-0.00355829484761,0.00175487168599,-1.75042805495e-05,0.240318030119,-9.74555301666,0.472118556499
1560244286605318308,-0.00181296560913,0.00175487168599,-1.75042805495e-05,0.220130071044,-9.72557163239,0.472431361675
1560244286609236240,-0.00181296560913,0.00333151790642,-1.75042805495e-05,0.25986135006,-9.74540901184,0.49160939455
1560244286613152981,-0.00355829484761,0.00524553004652,-0.000834329470503,0.239673376083,-9.72542667389,0.491922229528
1560244286617069960,-0.00530362408608,0.00344303704554,-7.46682735063e-05,0.239987790585,-9.76519393921,0.512121677399
1560244286620986700,-0.00530362408608,0.00175487168599,-0.00280507673284,0.220769450068,-9.76550006866,0.472695201635
1560244286624903679,-0.00355829484761,0.00203717035074,-0.00148053490969,0.239987790585,-9.76519393921,0.512121677399
1560244286628819466,-0.00355829484761,0.00350020104088,-1.75042805495e-05,0.260830938816,-9.76569652557,0.451870143414
1560244286632736444,-0.00355829484761,0.00350020104088,-0.000524882446796,0.240637689829,-9.7655172348,0.472250461578
1560244286636654377,-0.00355829484761,0.00350020104088,-0.00176283356268,0.240318030119,-9.74555301666,0.472118556499
1560244286640571117,-0.00282461821485,0.00350020104088,-0.00102915691157,0.220124810934,-9.74537372589,0.492498874664
1560244286644487143,-9.45586282869e-05,0.00350020104088,-1.75042805495e-05,0.240962654352,-9.76567840576,0.452314913273
1560244286648403883,-0.00102605513414,0.00350020104088,-1.75042805495e-05,0.200901180506,-9.76548194885,0.473139941692
1560244286652321815,-0.00375772284784,0.00175487168599,-1.75042805495e-05,0.240957409143,-9.78548240662,0.47238239646
1560244286656238556,-0.00530362408608,0.00175487168599,-1.75042805495e-05,0.220769450068,-9.76550006866,0.472695201635
1560244286660155535,-0.00487884615323,0.00217964964717,-1.75042805495e-05,0.240967929363,-9.74587535858,0.432247370481
1560244286664072275,-0.0021481711279,0.00350020104088,-1.75042805495e-05,0.221739023924,-9.7857875824,0.432955950499
1560244286667989254,-0.00181296560913,0.00284973288831,-1.75042805495e-05,0.240637689829,-9.7655172348,0.472250461578
1560244286671905994,-0.00344889963333,0.000118937680548,-1.75042805495e-05,0.221419334412,-9.76582241058,0.43282404542
1560244286675822973,-0.00443411831642,9.54246752372e-06,-1.75042805495e-05,0.240642994642,-9.74571418762,0.452182978392
1560244286679739714,-0.00355829484761,9.54246752372e-06,-1.75042805495e-05,0.220769450068,-9.76550006866,0.472695201635
1560244286683656454,-0.00245711868354,0.00111071861897,-1.75042805495e-05,0.220439240336,-9.78514194489,0.512698292732
1560244286687573433,-0.00355829484761,0.00175487168599,-0.000359024966024,0.240312755108,-9.76535511017,0.492186069489
1560244286691491127,-0.00355829484761,0.000427337624987,-0.000435299453252,0.260181039572,-9.76537322998,0.491741329432
1560244286695408106,-0.00355829484761,9.54246752372e-06,-1.75042805495e-05,0.240312755108,-9.76535511017,0.492186069489
1560244286699326038,-0.00355829484761,9.54246752372e-06,-1.75042805495e-05,0.239668130875,-9.74522972107,0.511989712715
1560244286703243971,-0.00530362408608,9.54246752372e-06,-1.75042805495e-05,0.220455020666,-9.72573280334,0.452495783567
1560244286707161903,-0.00530362408608,9.54246752372e-06,-1.75042805495e-05,0.239343196154,-9.74506759644,0.531925320625
1560244286711078644,-0.00530362408608,9.54246752372e-06,-1.75042805495e-05,0.239993095398,-9.74539089203,0.492054134607
1560244286714996576,-0.00504210760214,0.000271058948471,-0.00176283356268,0.239673376083,-9.72542667389,0.491922229528
1560244286718914270,-0.00355829484761,0.00300246119616,-0.000515244104516,0.25985082984,-9.7850151062,0.531744480133
1560244286722831249,-0.00355829484761,0.00350020104088,-1.75042805495e-05,0.21947491169,-9.7450504303,0.532370090485
1560244286726748943,-0.00208445792133,0.000552527106906,-1.75042805495e-05,0.21947491169,-9.7450504303,0.532370090485
1560244286730665922,-0.00252692583143,9.54246752372e-06,-0.00104887332252,0.200251281261,-9.76515865326,0.513011157513
1560244286734583855,-0.00355829484761,9.54246752372e-06,-1.75042805495e-05,0.239987790585,-9.76519393921,0.512121677399
1560244286738500834,-0.00181296560913,9.54246752372e-06,-0.000822363176784,0.239993095398,-9.74539089203,0.492054134607
1560244286742418528,-0.00355829484761,9.54246752372e-06,-1.75042805495e-05,0.240302234888,-9.80496120453,0.532321095467
1560244286746336460,-0.0047257268521,9.54246752372e-06,-1.75042805495e-05,0.219799861312,-9.74521255493,0.512434482574
1560244286750253201,-0.00530362408608,9.54246752372e-06,-0.000424786849023,0.239343196154,-9.74506759644,0.531925320625
1560244286754171133,-0.00390975486619,9.54246752372e-06,-0.00176283356268,0.221419334412,-9.76582241058,0.43282404542
1560244286758088827,-0.00355829484761,9.54246752372e-06,-0.00112841033846,0.240307509899,-9.78515911102,0.512253642082
1560244286762005806,-0.00193843916964,9.54246752372e-06,-1.75042805495e-05,0.240642994642,-9.74571418762,0.452182978392
1560244286765923500,-0.00267332745067,-0.000850819383877,-1.75042805495e-05,0.240637689829,-9.7655172348,0.472250461578
1560244286769841671,-0.00530362408608,0.000111417327983,-0.000119379144725,0.240318030119,-9.74555301666,0.472118556499
1560244286773759604,-0.00530362408608,0.00284242081128,-0.000675284482722,0.25986135006,-9.74540901184,0.49160939455
1560244286777677298,-0.00530362408608,0.00491716903544,-1.75042805495e-05,0.220124810934,-9.74537372589,0.492498874664
1560244286781595230,-0.00267482389464,0.00350020104088,-1.75042805495e-05,0.239987790585,-9.76519393921,0.512121677399
1560244286785511971,-6.76363852108e-05,0.00350020104088,-1.75042805495e-05,0.260825663805,-9.78550052643,0.471937656403
1560244286789428949,-0.00622899128798,0.00195986220923,-0.00155784304798,0.200251281261,-9.76515865326,0.513011157513
1560244286793346643,-0.00704895332456,0.00175487168599,-0.00176283356268,0.200251281261,-9.76515865326,0.513011157513
1560244286797263622,-0.00702800589826,9.54246752372e-06,-0.00174188613586,0.239668130875,-9.74522972107,0.511989712715
1560244286801180363,-0.00429717634824,-0.000996905281859,-1.75042805495e-05,0.239662855864,-9.76503181458,0.532057285309
1560244286805098295,-0.00380572830952,-0.00148835332621,-1.75042805495e-05,0.220119550824,-9.76517677307,0.512566447258
1560244286809015036,-0.00530362408608,9.54246752372e-06,-1.75042805495e-05,0.219155222178,-9.72508621216,0.532238125801
1560244286812933207,-0.00308480440564,-0.000463947979873,-0.00176283356268,0.240307509899,-9.78515911102,0.512253642082
1560244286816849947,-0.000354148496144,-0.000276969649083,-0.000304016401038,0.23901823163,-9.74490642548,0.551860928535
1560244286820766926,-0.00251229428239,0.000708871132764,-1.75042805495e-05,0.239343196154,-9.74506759644,0.531925320625
1560244286824684620,-0.0052437726271,0.00512582713255,-0.0017029821022,0.23902875185,-9.70530033112,0.511725902557
1560244286828602552,-0.00797515103023,0.00431933246441,-1.75042805495e-05,0.259531140327,-9.76504993439,0.53161251545
1560244286832519293,-0.00688309535352,0.00158901371685,-1.75042805495e-05,0.239993095398,-9.74539089203,0.492054134607
1560244286836437225,-0.00415165370886,9.54246752372e-06,-1.75042805495e-05,0.238698512316,-9.72494220734,0.551729023457
1560244286840353966,-0.00355829484761,-0.00134341127939,-1.75042805495e-05,0.239987790585,-9.76519393921,0.512121677399
1560244286844270945,-0.00355829484761,9.54246752372e-06,-1.75042805495e-05,0.200576230884,-9.76531982422,0.493075549603
1560244286848187685,-0.00592142184378,0.0023726694849,-1.75042805495e-05,0.221089139581,-9.78546524048,0.472827136517
1560244286852105618,-0.00865285487403,0.00350020104088,-0.00162140587014,0.219805121422,-9.72540950775,0.492366939783
1560244286856022358,-0.0062049536424,0.000910872013508,-1.75042805495e-05,0.239987790585,-9.76519393921,0.512121677399
1560244286859940529,-0.00355829484761,9.54246752372e-06,-1.75042805495e-05,0.221089139581,-9.78546524048,0.472827136517
1560244286863857269,-0.0046286346852,9.54246752372e-06,-1.75042805495e-05,0.240312755108,-9.76535511017,0.492186069489
1560244286867775202,-0.00530362408608,9.54246752372e-06,-1.75042805495e-05,0.220764189959,-9.78530311584,0.492762714624
1560244286871692896,-0.00400668064382,9.54246752372e-06,-1.75042805495e-05,0.240637689829,-9.7655172348,0.472250461578
1560244286875609875,-0.00355829484761,9.54246752372e-06,-1.75042805495e-05,0.220769450068,-9.76550006866,0.472695201635
1560244286879527569,-0.00355829484761,0.00153308976667,-1.75042805495e-05,0.240957409143,-9.78548240662,0.47238239646
1560244286883444548,-0.00530362408608,0.00251840155143,-1.75042805495e-05,0.240957409143,-9.78548240662,0.47238239646
1560244286887362242,-0.00529963403371,0.00175487168599,-1.75042805495e-05,0.220124810934,-9.74537372589,0.492498874664
1560244286891280174,-0.00355829484761,0.00076454468344,-1.75042805495e-05,0.220769450068,-9.76550006866,0.472695201635
1560244286895196915,-0.00355829484761,0.000240048533036,-0.00024801035447,0.240632474422,-9.78532028198,0.49231800437
1560244286899114132,-0.00355829484761,0.00175487168599,-0.00297897801464,0.220449760556,-9.74553585052,0.472563266754
1560244286903031826,-0.00355829484761,9.54246752372e-06,-0.00130613502972,0.259216696024,-9.72528362274,0.511413097382
1560244286906949759,-0.00355829484761,9.54246752372e-06,-1.75042805495e-05,0.239993095398,-9.74539089203,0.492054134607
1560244286910866499,-0.00355829484761,9.54246752372e-06,-1.75042805495e-05,0.240307509899,-9.78515911102,0.512253642082
1560244286914784431,-0.00355829484761,9.54246752372e-06,-1.75042805495e-05,0.219794601202,-9.76501464844,0.532501995564
1560244286918702364,-0.00181296560913,9.54246752372e-06,-1.75042805495e-05,0.220119550824,-9.76517677307,0.512566447258
1560244286922620058,-0.00181296560913,9.54246752372e-06,-1.75042805495e-05,0.240307509899,-9.78515911102,0.512253642082
1560244286926537037,-0.00181296560913,9.54246752372e-06,-0.0011537466333,0.239993095398,-9.74539089203,0.492054134607
1560244286930454731,-0.00219005127837,0.000386628132435,-1.75042805495e-05,0.220124810934,-9.74537372589,0.492498874664
1560244286934371710,-0.00492090888969,0.00175487168599,-1.75042805495e-05,0.260181039572,-9.76537322998,0.491741329432
1560244286938289642,-0.00530362408608,0.00115170435967,-1.75042805495e-05,0.240312755108,-9.76535511017,0.492186069489
1560244286942207575,-0.00530362408608,9.54246752372e-06,-1.75042805495e-05,0.200256541371,-9.74535560608,0.492943614721
1560244286946124315,-0.00530362408608,9.54246752372e-06,-1.75042805495e-05,0.199931591749,-9.74519443512,0.512879252434
1560244286950042248,-0.00355829484761,8.00342935455e-05,-1.75042805495e-05,0.220119550824,-9.76517677307,0.512566447258
1560244286953959942,-0.00250165754238,0.00175487168599,-0.00107414161221,0.199942111969,-9.70558834076,0.472744166851
1560244286957877874,-0.00181296560913,0.00175487168599,-0.00176283356268,0.239993095398,-9.74539089203,0.492054134607
1560244286961794615,-0.00309533314809,0.00303723931048,-0.000480465991651,0.239668130875,-9.74522972107,0.511989712715
1560244286965712547,-0.00530362408608,0.00350020104088,-1.75042805495e-05,0.239668130875,-9.74522972107,0.511989712715
1560244286969630480,-0.00530362408608,0.00199061880687,-1.75042805495e-05,0.219805121422,-9.72540950775,0.492366939783
1560244286973549366,-0.00355829484761,9.54246752372e-06,-0.00176283356268,0.239987790585,-9.76519393921,0.512121677399
1560244286977466345,-0.00182193946147,9.54246752372e-06,-0.00176283356268,0.240318030119,-9.74555301666,0.472118556499
1560244286981384039,-0.000835767579703,0.000986740493899,-1.75042805495e-05,0.220124810934,-9.74537372589,0.492498874664
1560244286985301971,-0.00181296560913,0.00350020104088,-0.000235690827652,0.200901180506,-9.76548194885,0.473139941692
1560244286989219666,-0.00301697402346,0.00109218414572,-0.00176283356268,0.239993095398,-9.74539089203,0.492054134607
1560244286993137598,-0.00400302303435,-0.0026252431941,-1.75042805495e-05,0.220774710178,-9.74569702148,0.452627718449
1560244286997055531,-0.00387272611431,-0.00522644538432,-1.75042805495e-05,0.220764189959,-9.78530311584,0.492762714624
1560244287000972509,-0.00248420726503,-0.0021386326383,-0.000688745953235,0.221408829093,-9.80542945862,0.472959041595
1560244287004889250,-0.00521516924631,0.00166641684723,-0.00176283356268,0.240637689829,-9.7655172348,0.472250461578
1560244287008806229,-0.00530362408608,0.000858014822617,0.000879352570671,0.239987790585,-9.76519393921,0.512121677399
1560244287012722969,-0.00530362408608,9.54246752372e-06,0.00159099861634,0.219805121422,-9.72540950775,0.492366939783
1560244287016640902,-0.00530362408608,9.54246752372e-06,-1.75042805495e-05,0.239673376083,-9.72542667389,0.491922229528
1560244287020557642,-0.00530362408608,0.00175487168599,-1.75042805495e-05,0.220449760556,-9.74553585052,0.472563266754
1560244287024474621,-0.00665227240604,0.0031035200959,-0.00136615263424,0.239662855864,-9.76503181458,0.532057285309
1560244287028391361,-0.00763749069549,0.00291166363068,-0.00117429617702,0.220444500446,-9.76533794403,0.492630809546
1560244287032309294,-0.00721903052721,0.000179619668232,-1.75042805495e-05,0.239993095398,-9.74539089203,0.492054134607
1560244287036226988,-0.00448812889197,9.54246752372e-06,-1.75042805495e-05,0.260186284781,-9.74557113647,0.471673816442
1560244287040144920,-0.00355829484761,6.60415339015e-05,-1.75042805495e-05,0.240637689829,-9.7655172348,0.472250461578
1560244287044061661,-0.00355829484761,0.00175487168599,-1.75042805495e-05,0.221094399691,-9.76566123962,0.452759623528
1560244287047978878,-0.00530362408608,9.54246752372e-06,-1.75042805495e-05,0.220769450068,-9.76550006866,0.472695201635
1560244287051895618,-0.0065708236798,9.54246752372e-06,-1.75042805495e-05,0.220769450068,-9.76550006866,0.472695201635
1560244287055813551,-0.00828607302896,9.54246752372e-06,-1.75042805495e-05,0.220769450068,-9.76550006866,0.472695201635
1560244287059730291,-0.00555533209805,9.54246752372e-06,-0.00151112554442,0.239993095398,-9.74539089203,0.492054134607
1560244287063647270,-0.00282461821485,9.54246752372e-06,-0.00102915691157,0.239993095398,-9.74539089203,0.492054134607
1560244287067564964,-0.00181296560913,9.54246752372e-06,-1.75042805495e-05,0.220444500446,-9.76533794403,0.492630809546
1560244287071481943,-0.00277271364441,9.54246752372e-06,-1.75042805495e-05,0.220449760556,-9.74553585052,0.472563266754
1560244287075399637,-0.00355829484761,9.54246752372e-06,-1.75042805495e-05,0.239993095398,-9.74539089203,0.492054134607
1560244287079317570,-0.00355829484761,9.54246752372e-06,-1.75042805495e-05,0.220449760556,-9.74553585052,0.472563266754
1560244287083234310,-0.00530362408608,9.54246752372e-06,-1.75042805495e-05,0.220444500446,-9.76533794403,0.492630809546
1560244287087152243,-0.00530362408608,9.54246752372e-06,-1.75042805495e-05,0.239662855864,-9.76503181458,0.532057285309
1560244287091070175,-0.00355829484761,9.54246752372e-06,-1.75042805495e-05,0.220769450068,-9.76550006866,0.472695201635
1560244287094988108,-0.00191837007372,9.54246752372e-06,-1.75042805495e-05,0.220769450068,-9.76550006866,0.472695201635
1560244287098905087,-0.000932489831392,9.54246752372e-06,-0.000897980087655,0.260500729084,-9.78533840179,0.49187323451
1560244287102822781,-6.76363852108e-05,0.00187557182427,-0.00164213342943,0.220444500446,-9.76533794403,0.492630809546
1560244287106740713,-6.76363852108e-05,0.00460719351727,-1.75042805495e-05,0.240637689829,-9.7655172348,0.472250461578
1560244287110658407,-0.0021608015781,0.00524553004652,-1.75042805495e-05,0.221089139581,-9.78546524048,0.472827136517
1560244287114575386,-0.00355829484761,0.00524553004652,-1.75042805495e-05,0.220124810934,-9.74537372589,0.492498874664
1560244287118493080,-0.00413220202922,0.00292629382099,-1.75042805495e-05,0.21947491169,-9.7450504303,0.532370090485
1560244287122411251,-0.0037435794012,0.000194827018987,-1.75042805495e-05,0.200581490993,-9.74551773071,0.473008036613
1560244287126327991,-0.00261317096541,0.000809747814626,-1.75042805495e-05,0.240312755108,-9.76535511017,0.492186069489
1560244287130245924,-0.00359952585366,0.00175487168599,-1.75042805495e-05,0.239668130875,-9.74522972107,0.511989712715
1560244287134162664,-0.00530362408608,0.000728148805451,-0.00104422719854,0.239993095398,-9.74539089203,0.492054134607
1560244287138080597,-0.00530362408608,9.54246752372e-06,-0.00350816268474,0.220449760556,-9.74553585052,0.472563266754
1560244287141998291,-0.00404990667606,9.54246752372e-06,-0.00350816268474,0.239668130875,-9.74522972107,0.511989712715
1560244287145915270,-0.00355829484761,9.54246752372e-06,-0.00301462494585,0.221414089203,-9.78562641144,0.452891558409
1560244287149832964,-0.00355829484761,0.00148903253214,-0.00324232354557,0.219799861312,-9.74521255493,0.512434482574
1560244287153750896,-0.00181296560913,0.00422041097647,-0.00278795270111,0.21946965158,-9.76485347748,0.552437603474
1560244287157668829,-0.00181296560913,0.00183298055362,-5.65587166465e-05,0.239993095398,-9.74539089203,0.492054134607
1560244287161585808,-0.00275958504615,9.54246752372e-06,-1.75042805495e-05,0.260511249304,-9.74573230743,0.451738238335
1560244287165503740,-0.00530362408608,9.54246752372e-06,-1.75042805495e-05,0.221089139581,-9.78546524048,0.472827136517
1560244287169420481,-0.00530362408608,0.0023558157223,-0.00236377742162,0.220449760556,-9.74553585052,0.472563266754
1560244287173337221,-0.00355829484761,0.00350020104088,-0.00309552142577,0.220444500446,-9.76533794403,0.492630809546
1560244287177255154,-0.00355829484761,0.00210084509308,-0.000363477673216,0.220124810934,-9.74537372589,0.492498874664
1560244287181172132,-0.00530362408608,0.00175487168599,-0.00176283356268,0.239993095398,-9.74539089203,0.492054134607
1560244287185089827,-0.00367828400219,0.00175487168599,-0.00338817353816,0.240962654352,-9.76567840576,0.452314913273
1560244287189007759,-0.00181296560913,0.00350020104088,-0.00176283356268,0.220764189959,-9.78530311584,0.492762714624
1560244287192924500,-0.00355829484761,0.00339428721845,-1.75042805495e-05,0.220439240336,-9.78514194489,0.512698292732
1560244287195230961,-0.00355829484761,0.00178579788333,-1.75042805495e-05,0.239982575178,-9.78499698639,0.532189190388
1560244287199148178,-0.00355829484761,0.000342278758569,-0.000350240583732,0.220449760556,-9.74553585052,0.472563266754
1560244287203064203,-0.00487630848327,0.00307288540956,-0.00176283356268,0.220124810934,-9.74537372589,0.492498874664
1560244287206980467,-0.00530362408608,0.00350020104088,-0.00176283356268,0.220119550824,-9.76517677307,0.512566447258
1560244287210897684,-0.0037590009343,0.000410954651992,-0.000218210372261,0.240637689829,-9.7655172348,0.472250461578
1560244287214813948,-0.0010288968157,9.54246752372e-06,-1.75042805495e-05,0.239668130875,-9.74522972107,0.511989712715
1560244287218730211,-9.20706248377e-05,3.39767070742e-05,-4.19385209913e-05,0.220764189959,-9.78530311584,0.492762714624
1560244287222647190,-0.00383347006041,0.00175487168599,-0.000752581311772,0.220119550824,-9.76517677307,0.512566447258
1560244287226564407,-0.00679802939224,9.54246752372e-06,-1.75042805495e-05,0.220119550824,-9.76517677307,0.512566447258
1560244287230481625,-0.00406643458936,9.54246752372e-06,-0.00125469380821,0.219799861312,-9.74521255493,0.512434482574
1560244287234398842,-0.00355829484761,0.000487778830526,-0.00224106989927,0.240318030119,-9.74555301666,0.472118556499
1560244287238316059,-0.00355829484761,0.00321928580961,-0.00204374875648,0.239998310804,-9.72558879852,0.471986621618
1560244287242233515,-0.00181296560913,0.00350020104088,-0.00176283356268,0.239993095398,-9.74539089203,0.492054134607
1560244287246149302,-0.00181296560913,0.00181005666469,-7.26892569506e-05,0.260500729084,-9.78533840179,0.49187323451
1560244287250066757,-0.00355829484761,0.00175487168599,-1.75042805495e-05,0.220130071044,-9.72557163239,0.472431361675
1560244287253983974,-0.00373056586908,0.00192714271895,-1.75042805495e-05,0.239982575178,-9.78499698639,0.532189190388
1560244287257901192,-0.00530362408608,0.00350020104088,-1.75042805495e-05,0.220444500446,-9.76533794403,0.492630809546
1560244287261818409,-0.00490406495914,0.00310064188728,-0.00136327442574,0.219155222178,-9.72508621216,0.532238125801
1560244287265735626,-0.00217330051461,0.000369877368868,-1.75042805495e-05,0.240632474422,-9.78532028198,0.49231800437
1560244287269652605,-0.00181296560913,9.54246752372e-06,-1.75042805495e-05,0.220119550824,-9.76517677307,0.512566447258
1560244287273569822,-0.00181296560913,9.54246752372e-06,-1.75042805495e-05,0.220124810934,-9.74537372589,0.492498874664
1560244287277487040,-0.00441134591213,0.00350020104088,-0.000909782476818,0.239993095398,-9.74539089203,0.492054134607
1560244287281404257,-0.00365174696496,0.00350020104088,-0.00166938144299,0.239987790585,-9.76519393921,0.512121677399
1560244287285321474,-0.00422353860624,0.00350020104088,-1.75042805495e-05,0.220444500446,-9.76533794403,0.492630809546
1560244287289238691,-0.00355829484761,0.00175487168599,-0.000338145907147,0.220769450068,-9.76550006866,0.472695201635
1560244287293155670,-0.00355829484761,0.00306154078591,-0.00176283356268,0.220769450068,-9.76550006866,0.472695201635
1560244287297072887,-0.00355829484761,0.00350020104088,-0.00176283356268,0.240632474422,-9.78532028198,0.49231800437
1560244287300989151,-0.00355829484761,0.00350020104088,-0.00176283356268,0.240632474422,-9.78532028198,0.49231800437
1560244287304906607,-0.00355829484761,0.00350020104088,-1.75042805495e-05,0.220119550824,-9.76517677307,0.512566447258
1560244287308823824,-0.00355829484761,9.54246752372e-06,-1.75042805495e-05,0.240318030119,-9.74555301666,0.472118556499
1560244287312741041,-0.00355829484761,9.54246752372e-06,-1.75042805495e-05,0.240637689829,-9.7655172348,0.472250461578
1560244287316658020,-0.00355829484761,0.000493202000865,-1.75042805495e-05,0.219799861312,-9.74521255493,0.512434482574
1560244287320575237,-0.00478567655379,0.00350020104088,-1.75042805495e-05,0.219799861312,-9.74521255493,0.512434482574
1560244287324492455,-0.00530362408608,0.00303178756171,-1.75042805495e-05,0.200256541371,-9.74535560608,0.492943614721
1560244287328408718,-0.00530362408608,0.00175487168599,-1.75042805495e-05,0.259536385536,-9.74524784088,0.51154500246
1560244287332325935,-0.00530362408608,0.00175487168599,-0.000712477745643,0.219794601202,-9.76501464844,0.532501995564
1560244287336243153,-0.00530362408608,0.00343618136457,-0.00176283356268,0.240312755108,-9.76535511017,0.492186069489
1560244287340160131,-0.00530362408608,0.00432416265195,-0.00176283356268,0.220769450068,-9.76550006866,0.472695201635
1560244287344077349,-0.00339583416775,0.00317527967219,-0.00160037287876,0.219810381532,-9.70560646057,0.472299426794
1560244287347993612,-0.000664981072736,-0.00113844209161,-1.75042805495e-05,0.239987790585,-9.76519393921,0.512121677399
1560244287351911783,-0.00220255229829,-0.00134620009734,-1.75042805495e-05,0.259536385536,-9.74524784088,0.51154500246
1560244287355829000,-0.00493397172543,9.54246752372e-06,-1.75042805495e-05,0.259856075048,-9.76521205902,0.511676907539
1560244287359745264,-0.00591921196562,0.000625130340001,-0.000633092175481,0.200576230884,-9.76531982422,0.493075549603
1560244287363662243,-0.00544740592615,0.00175487168599,-0.00176283356268,0.220769450068,-9.76550006866,0.472695201635
1560244287367578506,-0.00530362408608,0.000913302567336,-0.00176283356268,0.220444500446,-9.76533794403,0.492630809546
1560244287371494770,-0.00522151034359,9.16562090714e-05,-1.75042805495e-05,0.240312755108,-9.76535511017,0.492186069489
1560244287375412226,-0.00248991238733,0.00282325421753,-1.75042805495e-05,0.239987790585,-9.76519393921,0.512121677399
1560244287379329443,-0.00181296560913,0.00350020104088,-1.75042805495e-05,0.200901180506,-9.76548194885,0.473139941692
1560244287383245468,-0.00310733472692,0.00220583183675,-1.75042805495e-05,0.221089139581,-9.78546524048,0.472827136517
1560244287387161732,-0.00530362408608,9.54246752372e-06,-1.75042805495e-05,0.240632474422,-9.78532028198,0.49231800437
1560244287391078949,-0.00530362408608,0.00153040815533,-1.75042805495e-05,0.220769450068,-9.76550006866,0.472695201635
1560244287394996166,-0.00530362408608,9.54246752372e-06,-1.75042805495e-05,0.219155222178,-9.72508621216,0.532238125801
1560244287398912191,-0.00530362408608,9.54246752372e-06,-1.90003123481e-05,0.240627169609,-9.80512332916,0.512385487556
1560244287402829409,-0.00530362408608,9.54246752372e-06,-0.000775165080787,0.220449760556,-9.74553585052,0.472563266754
1560244287406746626,-0.00507564697939,9.54246752372e-06,-1.75042805495e-05,0.239993095398,-9.74539089203,0.492054134607
1560244287410662889,-0.0023442470761,9.54246752372e-06,-1.75042805495e-05,0.220444500446,-9.76533794403,0.492630809546
1560244287414579153,-0.00355829484761,9.54246752372e-06,-1.75042805495e-05,0.240312755108,-9.76535511017,0.492186069489
1560244287418496370,-0.00355829484761,9.54246752372e-06,-0.00145764992048,0.220439240336,-9.78514194489,0.512698292732
1560244287422413349,-0.00181296560913,0.000690488374923,-0.00176283356268,0.240637689829,-9.7655172348,0.472250461578
1560244287426329613,-0.00347884086558,0.00175487168599,-0.00176283356268,0.239673376083,-9.72542667389,0.491922229528
1560244287430246830,-0.00530362408608,0.000847965188481,-0.00085592703209,0.240318030119,-9.74555301666,0.472118556499
1560244287434164047,-0.00530362408608,9.54246752372e-06,-1.75042805495e-05,0.220124810934,-9.74537372589,0.492498874664
1560244287438081264,-0.00530362408608,0.00114367337944,-1.75042805495e-05,0.240637689829,-9.7655172348,0.472250461578
1560244287441999435,-0.00355829484761,0.00175487168599,-0.00138756419544,0.240307509899,-9.78515911102,0.512253642082
1560244287445916414,-0.00355829484761,0.00175487168599,-1.75042805495e-05,0.239987790585,-9.76519393921,0.512121677399
1560244287449833632,-0.00355829484761,0.00115258628533,-1.75042805495e-05,0.260175764561,-9.78517723083,0.511808872223
1560244287453749895,-0.00355829484761,9.54246752372e-06,-1.75042805495e-05,0.260500729084,-9.78533840179,0.49187323451
1560244287457667351,-0.00355829484761,9.54246752372e-06,-1.75042805495e-05,0.239987790585,-9.76519393921,0.512121677399
1560244287461584568,-0.00181296560913,9.54246752372e-06,-1.75042805495e-05,0.239998310804,-9.72558879852,0.471986621618
1560244287465501785,-0.000757557693603,9.54246752372e-06,-1.75042805495e-05,0.220124810934,-9.74537372589,0.492498874664
1560244287469417810,-0.000363178647081,-0.000285999800199,-1.75042805495e-05,0.220444500446,-9.76533794403,0.492630809546
1560244287473335028,-0.00309469187761,-0.00173578679096,-1.75042805495e-05,0.221094399691,-9.76566123962,0.452759623528
1560244287477252245,-0.00530362408608,0.000531844254266,0.0012055231346,0.239668130875,-9.74522972107,0.511989712715
1560244287481169462,-0.00681208684013,0.000246408949236,-1.75042805495e-05,0.220769450068,-9.76550006866,0.472695201635
1560244287485086679,-0.00530362408608,-0.000740165672318,-1.75042805495e-05,0.240312755108,-9.76535511017,0.492186069489
1560244287489003897,-0.00356793552066,-0.00347147524061,-1.75042805495e-05,0.220764189959,-9.78530311584,0.492762714624
1560244287492919922,-6.76363852108e-05,-0.000760357722449,-1.75042805495e-05,0.200576230884,-9.76531982422,0.493075549603
1560244287496837139,-0.00028422315293,9.54246752372e-06,-1.75042805495e-05,0.220764189959,-9.78530311584,0.492762714624
1560244287500754356,-0.00301524775418,9.54246752372e-06,-1.75042805495e-05,0.220449760556,-9.74553585052,0.472563266754
1560244287504671574,-0.00400177776772,0.00131138877096,-1.75042805495e-05,0.220124810934,-9.74537372589,0.492498874664
1560244287508588791,-0.00530362408608,9.54246752372e-06,-1.75042805495e-05,0.280054539442,-9.74558925629,0.471229076385
1560244287512504816,-0.00530362408608,-0.000659755379525,-0.00109353570656,0.239987790585,-9.76519393921,0.512121677399
1560244287516422033,-0.00530362408608,-0.00173578679096,-1.75042805495e-05,0.240637689829,-9.7655172348,0.472250461578
1560244287520339251,-0.00530362408608,9.54246752372e-06,-1.75042805495e-05,0.220119550824,-9.76517677307,0.512566447258
1560244287524256706,-0.00516610633577,-0.000127975284365,-1.75042805495e-05,0.200581490993,-9.74551773071,0.473008036613
1560244287528173923,-0.00355829484761,-0.000612068225245,-1.75042805495e-05,0.199606642127,-9.74503231049,0.532814860344
1560244287532091141,-0.00355829484761,0.000373707281856,-1.75042805495e-05,0.199931591749,-9.74519443512,0.512879252434
1560244287536008120,-0.00355829484761,0.000404651639232,-1.75042805495e-05,0.240637689829,-9.7655172348,0.472250461578
1560244287539925337,-0.00181296560913,-0.000581767866917,-1.75042805495e-05,0.240318030119,-9.74555301666,0.472118556499
1560244287543842554,-0.00339026067288,-0.00173578679096,-1.75042805495e-05,0.240312755108,-9.76535511017,0.492186069489
1560244287547759771,-0.00274041602585,-0.000917907959829,-1.75042805495e-05,0.260181039572,-9.76537322998,0.491741329432
1560244287551676989,-0.00181296560913,9.54246752372e-06,-0.00176283356268,0.260181039572,-9.76537322998,0.491741329432
1560244287555594206,-0.00181296560913,9.54246752372e-06,-0.00176283356268,0.240632474422,-9.78532028198,0.49231800437
1560244287559511423,-0.00181296560913,0.000295277428337,-0.00147709859144,0.221089139581,-9.78546524048,0.472827136517
1560244287563428402,-0.00308471466003,0.00175487168599,-0.00128925336325,0.240957409143,-9.78548240662,0.47238239646
1560244287567345619,-0.00530362408608,9.54246752372e-06,-1.75042805495e-05,0.240307509899,-9.78515911102,0.512253642082
1560244287571262836,-0.00380453987681,9.54246752372e-06,-1.75042805495e-05,0.2194801718,-9.72524833679,0.512302517891
1560244287575180292,-0.00530362408608,0.00175487168599,-1.75042805495e-05,0.239998310804,-9.72558879852,0.471986621618
1560244287579098463,-0.00530362408608,0.00175487168599,-0.00174420953605,0.221094399691,-9.76566123962,0.452759623528
1560244287583015680,-0.00433634334208,0.000976823200438,-0.00254088200525,0.220119550824,-9.76517677307,0.512566447258
1560244287586932898,-0.00355829484761,0.00350020104088,-0.00155424458902,0.2194801718,-9.72524833679,0.512302517891
1560244287590849876,-0.00355829484761,0.00469405838415,-1.75042805495e-05,0.220124810934,-9.74537372589,0.492498874664
1560244287594767094,-0.00399313117269,0.00524553004652,-1.75042805495e-05,0.240318030119,-9.74555301666,0.472118556499
1560244287598685265,-0.00530362408608,0.00240205291195,-1.75042805495e-05,0.220114290714,-9.78497982025,0.532633900642
1560244287602602482,-0.00530362408608,0.00175487168599,-1.75042805495e-05,0.220119550824,-9.76517677307,0.512566447258
1560244287606519699,-0.00365457373266,0.00175487168599,-1.75042805495e-05,0.239668130875,-9.74522972107,0.511989712715
1560244287610436916,-0.00181296560913,0.00350020104088,-1.75042805495e-05,0.259536385536,-9.74524784088,0.51154500246
1560244287614352942,-0.00368778225357,0.00350020104088,-1.75042805495e-05,0.219799861312,-9.74521255493,0.512434482574
1560244287618270159,-0.00530362408608,0.00126898643042,-1.75042805495e-05,0.240312755108,-9.76535511017,0.492186069489
1560244287622187614,-0.00494727504257,9.54246752372e-06,-1.75042805495e-05,0.240312755108,-9.76535511017,0.492186069489
1560244287626104832,-0.0022157209702,9.54246752372e-06,-1.75042805495e-05,0.240318030119,-9.74555301666,0.472118556499
1560244287630022049,-0.00181296560913,9.54246752372e-06,-1.75042805495e-05,0.240312755108,-9.76535511017,0.492186069489
1560244287633938313,-0.00181296560913,9.54246752372e-06,-1.75042805495e-05,0.219799861312,-9.74521255493,0.512434482574
1560244287637855291,-0.00262244154327,9.54246752372e-06,-1.75042805495e-05,0.23934841156,-9.72526550293,0.511857867241
1560244287641771555,-0.00350874640471,9.54246752372e-06,-0.00176283356268,0.220455020666,-9.72573280334,0.452495783567
1560244287645688772,-0.00284869376313,9.54246752372e-06,-0.000727105382779,0.220130071044,-9.72557163239,0.472431361675
1560244287649605989,-0.00355829484761,9.54246752372e-06,-1.75042805495e-05,0.240637689829,-9.7655172348,0.472250461578
1560244287653523207,-0.00355829484761,0.00127235841403,-1.75042805495e-05,0.240627169609,-9.80512332916,0.512385487556
1560244287657440424,-0.00355829484761,0.00175487168599,-0.00125932226552,0.239993095398,-9.74539089203,0.492054134607
1560244287661357403,-0.00504780881276,0.000265357737912,-1.75042805495e-05,0.259856075048,-9.76521205902,0.511676907539
1560244287665274620,-0.00530362408608,9.54246752372e-06,-1.75042805495e-05,0.200251281261,-9.76515865326,0.513011157513
1560244287669190884,-0.00530362408608,9.54246752372e-06,-1.75042805495e-05,0.220774710178,-9.74569702148,0.452627718449
1560244287673108101,-0.00355829484761,9.54246752372e-06,-0.000974309343089,0.240952134132,-9.80528450012,0.492449909449
1560244287677025318,-0.00355829484761,9.54246752372e-06,-0.00196021411237,0.240637689829,-9.7655172348,0.472250461578
1560244287680942535,-0.00474184754237,9.54246752372e-06,-0.00114105734456,0.260181039572,-9.76537322998,0.491741329432
1560244287684859514,-0.00530362408608,9.54246752372e-06,-1.75042805495e-05,0.260186284781,-9.74557113647,0.471673816442
1560244287688776970,-0.00530362408608,9.54246752372e-06,-1.75042805495e-05,0.239987790585,-9.76519393921,0.512121677399
1560244287692694187,-0.00530362408608,9.54246752372e-06,-0.00176283356268,0.220119550824,-9.76517677307,0.512566447258
1560244287696611404,-0.00530362408608,9.54246752372e-06,-0.000125538153529,0.239993095398,-9.74539089203,0.492054134607
1560244287700527668,-0.00530362408608,9.54246752372e-06,-1.75042805495e-05,0.239998310804,-9.72558879852,0.471986621618
1560244287704444647,-0.00530362408608,9.54246752372e-06,-1.75042805495e-05,0.239987790585,-9.76519393921,0.512121677399
1560244287708360910,-0.00419982325719,9.54246752372e-06,-1.75042805495e-05,0.239668130875,-9.74522972107,0.511989712715
1560244287712278128,-0.00390283814776,0.000354085763728,-0.000362047589321,0.280368983746,-9.78535652161,0.491428524256
1560244287716195345,-0.00397297866062,0.00175487168599,-0.00176283356268,0.240642994642,-9.74571418762,0.452182978392
1560244287720111609,-0.00298732270946,0.00118389955439,-1.75042805495e-05,0.239987790585,-9.76519393921,0.512121677399
1560244287724028826,-0.00337022656768,9.54246752372e-06,-1.75042805495e-05,0.240312755108,-9.76535511017,0.492186069489
1560244287727945805,-0.00530362408608,9.54246752372e-06,-1.75042805495e-05,0.220124810934,-9.74537372589,0.492498874664
1560244287731862068,-0.00530362408608,4.71225059539e-05,-1.75042805495e-05,0.239673376083,-9.72542667389,0.491922229528
1560244287735779285,-0.00530362408608,0.00073094549003,-1.75042805495e-05,0.239673376083,-9.72542667389,0.491922229528
1560244287739695549,-0.00355829484761,9.54246752372e-06,-1.75042805495e-05,0.220124810934,-9.74537372589,0.492498874664
1560244287743612766,-0.00355829484761,9.54246752372e-06,-1.75042805495e-05,0.239987790585,-9.76519393921,0.512121677399
1560244287747528791,-0.00530362408608,9.54246752372e-06,-1.75042805495e-05,0.220439240336,-9.78514194489,0.512698292732
1560244287751446009,-0.00382740752888,9.54246752372e-06,-1.75042805495e-05,0.239668130875,-9.74522972107,0.511989712715
1560244287755362272,-0.00284171285054,0.00493336493942,-1.75042805495e-05,0.240318030119,-9.74555301666,0.472118556499
1560244287759279490,-0.00351573000909,0.00528809488504,-1.75042805495e-05,0.240318030119,-9.74555301666,0.472118556499
1560244287763195515,-0.00530362408608,0.00255753009302,-1.75042805495e-05,0.220444500446,-9.76533794403,0.492630809546
1560244287767111778,-0.00355829484761,9.54246752372e-06,-1.75042805495e-05,0.240312755108,-9.76535511017,0.492186069489
1560244287771028996,-0.00355829484761,9.54246752372e-06,-1.75042805495e-05,0.219799861312,-9.74521255493,0.512434482574
1560244287774946213,-0.00355829484761,9.54246752372e-06,-0.000427241261636,0.240637689829,-9.7655172348,0.472250461578
1560244287778862476,-0.00355829484761,9.54246752372e-06,-0.00176283356268,0.200576230884,-9.76531982422,0.493075549603
1560244287782780647,-0.0041948343923,9.54246752372e-06,-0.00176283356268,0.220124810934,-9.74537372589,0.492498874664
1560244287786697865,-0.00692628224382,0.00163220060666,-0.00176283356268,0.220124810934,-9.74537372589,0.492498874664
1560244287790614128,-0.00618601176759,0.000891930138912,-0.00176283356268,0.220119550824,-9.76517677307,0.512566447258
1560244287794531345,-0.00355829484761,9.54246752372e-06,-1.75042805495e-05,0.239668130875,-9.74522972107,0.511989712715
1560244287798448563,-0.00464829452196,9.54246752372e-06,-1.75042805495e-05,0.219799861312,-9.74521255493,0.512434482574
1560244287802364826,-0.00355829484761,9.54246752372e-06,-1.75042805495e-05,0.220124810934,-9.74537372589,0.492498874664
1560244287810198069,-0.00355829484761,9.54246752372e-06,-0.000573795908699,0.239668130875,-9.74522972107,0.511989712715
1560244287814115286,-0.00355829484761,9.54246752372e-06,-0.00176283356268,0.239668130875,-9.74522972107,0.511989712715
1560244287818032503,-0.00355829484761,9.54246752372e-06,-0.00176283356268,0.239668130875,-9.74522972107,0.511989712715
1560244287821948767,-0.00355829484761,7.83850349705e-05,-0.00176283356268,0.239668130875,-9.74522972107,0.511989712715
1560244287825864792,-0.00355829484761,0.00625399827021,-0.00176283356268,0.221089139581,-9.78546524048,0.472827136517
1560244287829782009,-0.00355829484761,0.00524553004652,-0.00151333477848,0.219799861312,-9.74521255493,0.512434482574
1560244287833698273,-0.00355829484761,0.00401064777759,-1.75042805495e-05,0.219799861312,-9.74521255493,0.512434482574
1560244287837615490,-0.00530362408608,0.00302462541511,-1.75042805495e-05,0.279079705477,-9.74510383606,0.531035900116
1560244287841532707,-0.00530362408608,0.00321662663394,-1.75042805495e-05,0.239993095398,-9.74539089203,0.492054134607
1560244287845448732,-0.00530362408608,0.00524553004652,-0.00246462194616,0.239987790585,-9.76519393921,0.512121677399
1560244287849364996,-0.00530362408608,0.00187060660579,-0.00350816268474,0.239998310804,-9.72558879852,0.471986621618
1560244287853282213,-0.00437586234637,9.54246752372e-06,-0.00176283356268,0.220444500446,-9.76533794403,0.492630809546
1560244287857198477,-0.00339018063234,0.000177656680865,-0.00176283356268,0.220124810934,-9.74537372589,0.492498874664
1560244287861115694,-0.00296737624895,0.00175487168599,-0.00176283356268,0.239987790585,-9.76519393921,0.512121677399
1560244287865032673,-0.00355829484761,0.00135979991628,-1.75042805495e-05,0.219799861312,-9.74521255493,0.512434482574
1560244287868949890,-0.0049394594131,9.54246752372e-06,0.00136366025039,0.239993095398,-9.74539089203,0.492054134607
1560244287872868061,-0.00530362408608,-0.00111321508439,-1.75042805495e-05,0.219799861312,-9.74521255493,0.512434482574
1560244287876785517,-0.00369491610461,9.54246752372e-06,-0.00162621230226,0.220449760556,-9.74553585052,0.472563266754
1560244287880702734,-0.00700307646538,9.54246752372e-06,-0.00176283356268,0.240632474422,-9.78532028198,0.49231800437
1560244287884618998,-0.00870498725188,9.54246752372e-06,-0.00176283356268,0.220119550824,-9.76517677307,0.512566447258
1560244287888536215,-0.00597333155235,9.54246752372e-06,-0.000687211763573,0.219794601202,-9.76501464844,0.532501995564
1560244287892453194,-0.00498701703621,0.000326149513761,-1.75042805495e-05,0.220764189959,-9.78530311584,0.492762714624
1560244287896370411,-0.00225557233259,0.0030575942879,-1.75042805495e-05,0.220444500446,-9.76533794403,0.492630809546
1560244287900286674,-0.00181296560913,0.00295715460841,-0.00176283356268,0.239668130875,-9.74522972107,0.511989712715
1560244287904203892,-0.00181296560913,0.00175487168599,-0.00176283356268,0.220439240336,-9.78514194489,0.512698292732
1560244287908120155,-0.00355829484761,9.54246752372e-06,-0.000993964661701,0.260181039572,-9.76537322998,0.491741329432
1560244287912036180,-0.00181296560913,-0.00173578679096,-1.75042805495e-05,0.240637689829,-9.7655172348,0.472250461578
1560244287915953398,-0.00181296560913,-0.00173578679096,-1.75042805495e-05,0.221414089203,-9.78562641144,0.452891558409
1560244287919869661,-0.00181296560913,9.54246752372e-06,-1.75042805495e-05,0.23933789134,-9.76487064362,0.551992893219
1560244287923786879,-0.00181296560913,9.54246752372e-06,-1.75042805495e-05,0.240637689829,-9.7655172348,0.472250461578
1560244287927704096,-0.00309602191558,0.000471815394255,-1.75042805495e-05,0.220444500446,-9.76533794403,0.492630809546
1560244287931620121,-0.00181296560913,0.000307246001692,-1.75042805495e-05,0.259856075048,-9.76521205902,0.511676907539
1560244287935537338,-0.00250162256148,9.54246752372e-06,-0.000706161250125,0.220124810934,-9.74537372589,0.492498874664
1560244287939454556,-0.00355829484761,0.00168373563757,-0.00176283356268,0.219805121422,-9.72540950775,0.492366939783
1560244287943370819,-0.00621817662099,0.00175487168599,-0.00176283356268,0.220119550824,-9.76517677307,0.512566447258
1560244287947288036,-0.00689332572408,9.54246752372e-06,-0.00160720595831,0.2194801718,-9.72524833679,0.512302517891
1560244287951204062,-0.00416267678422,9.54246752372e-06,-1.75042805495e-05,0.240312755108,-9.76535511017,0.492186069489
1560244287955121279,-0.00355829484761,0.00175487168599,-1.75042805495e-05,0.220444500446,-9.76533794403,0.492630809546
1560244287959038496,-0.00355829484761,0.00175487168599,-1.75042805495e-05,0.220774710178,-9.74569702148,0.452627718449
1560244287962955713,-0.00355829484761,9.54246752372e-06,-1.75042805495e-05,0.240318030119,-9.74555301666,0.472118556499
1560244287966871977,-0.00515230454425,-0.00158446724739,-1.75042805495e-05,0.240637689829,-9.7655172348,0.472250461578
1560244287970789194,-0.00446903886519,-0.00173578679096,-1.75042805495e-05,0.200256541371,-9.74535560608,0.492943614721
1560244287974706411,-0.00355829484761,9.54246752372e-06,-1.75042805495e-05,0.260175764561,-9.78517723083,0.511808872223
1560244287978623629,-0.00461985275015,9.54246752372e-06,-1.75042805495e-05,0.240312755108,-9.76535511017,0.492186069489
1560244287982541800,-0.00530362408608,9.54246752372e-06,-1.75042805495e-05,0.220449760556,-9.74553585052,0.472563266754
1560244287986459017,-0.00530362408608,0.00258829295335,-0.0013068795201,0.220130071044,-9.72557163239,0.472431361675
1560244287990376234,-0.00704895332456,0.00524553004652,-0.00229278447066,0.221089139581,-9.78546524048,0.472827136517
1560244287994293451,-0.00856506219717,0.00524553004652,-0.00350816268474,0.239673376083,-9.72542667389,0.491922229528
1560244287998210669,-0.00629181259487,0.00274306026069,-0.00176283356268,0.240312755108,-9.76535511017,0.492186069489
1560244288002127647,-0.00530362408608,0.00175487168599,-1.96661713124e-05,0.220769450068,-9.76550006866,0.472695201635
1560244288006044865,-0.00431988072223,-0.000974200907608,-1.75042805495e-05,0.240637689829,-9.7655172348,0.472250461578
1560244288009962082,-0.00530362408608,-0.00173578679096,-1.75042805495e-05,0.239987790585,-9.76519393921,0.512121677399
1560244288013879299,-0.00530362408608,-0.00173578679096,-1.75042805495e-05,0.240637689829,-9.7655172348,0.472250461578
1560244288017796516,-0.00485199954817,9.54246752372e-06,-0.00176283356268,0.239987790585,-9.76519393921,0.512121677399
1560244288021713972,-0.00355829484761,0.00144743967257,-0.000324936305186,0.220124810934,-9.74537372589,0.492498874664
1560244288025629997,-0.00113518747568,0.00175487168599,-1.75042805495e-05,0.240312755108,-9.76535511017,0.492186069489
1560244288029547215,-6.76363852108e-05,9.09910946669e-05,-1.75042805495e-05,0.220114290714,-9.78497982025,0.532633900642
1560244288033464432,-0.00271771117957,0.00265961731677,-1.75042805495e-05,0.221419334412,-9.76582241058,0.43282404542
1560244288037381649,-0.00355829484761,0.00335442454504,-0.000163280770312,0.240637689829,-9.7655172348,0.472250461578
1560244288041298866,-0.00355829484761,0.000622968488837,-0.00176283356268,0.240318030119,-9.74555301666,0.472118556499
1560244288045216084,-0.00355829484761,9.54246752372e-06,-1.75042805495e-05,0.25986135006,-9.74540901184,0.49160939455
1560244288049132109,-0.00355829484761,9.54246752372e-06,-1.75042805495e-05,0.259531140327,-9.76504993439,0.53161251545
1560244288053049326,-0.00415696894483,0.000608216557886,-0.00176283356268,0.240642994642,-9.74571418762,0.452182978392
1560244288056965590,-0.00530362408608,0.00175487168599,-0.00017923793912,0.239668130875,-9.74522972107,0.511989712715
1560244288060882807,-0.00355829484761,9.54246752372e-06,-1.75042805495e-05,0.221094399691,-9.76566123962,0.452759623528
1560244288064800024,-0.00362381124826,9.54246752372e-06,-1.75042805495e-05,0.220444500446,-9.76533794403,0.492630809546
1560244288068717003,-0.00530362408608,9.54246752372e-06,-1.75042805495e-05,0.240307509899,-9.78515911102,0.512253642082
1560244288072634220,-0.00355829484761,9.54246752372e-06,-1.75042805495e-05,0.240307509899,-9.78515911102,0.512253642082
1560244288076551437,-0.00355829484761,9.54246752372e-06,-1.75042805495e-05,0.239993095398,-9.74539089203,0.492054134607
1560244288080468655,-0.00355829484761,9.54246752372e-06,-1.75042805495e-05,0.260186284781,-9.74557113647,0.471673816442
1560244288084385872,-0.00506378887832,9.54246752372e-06,-1.75042805495e-05,0.220444500446,-9.76533794403,0.492630809546
1560244288088303328,-0.00530362408608,9.54246752372e-06,-1.75042805495e-05,0.239668130875,-9.74522972107,0.511989712715
1560244288092220545,-0.00530362408608,9.54246752372e-06,-1.75042805495e-05,0.239662855864,-9.76503181458,0.532057285309
1560244288096137524,-0.00433035673615,9.54246752372e-06,-1.75042805495e-05,0.220449760556,-9.74553585052,0.472563266754
1560244288100054741,-0.0033442856717,9.54246752372e-06,-1.75042805495e-05,0.220444500446,-9.76533794403,0.492630809546
1560244288103971958,-0.00181296560913,9.54246752372e-06,-1.75042805495e-05,0.220449760556,-9.74553585052,0.472563266754
1560244288107889175,-0.00181296560913,0.00175487168599,-1.75042805495e-05,0.259531140327,-9.76504993439,0.53161251545
1560244288111806393,-0.00181296560913,0.000327479552239,-0.00144489646637,0.220444500446,-9.76533794403,0.492630809546
1560244288115723610,-0.00248103586552,-0.000658527796526,-0.00176283356268,0.239987790585,-9.76519393921,0.512121677399
1560244288119640589,-0.00521220222775,-0.00173578679096,-0.000108926141169,0.239987790585,-9.76519393921,0.512121677399
1560244288123556852,-0.00530362408608,0.000903815974458,-1.75042805495e-05,0.219799861312,-9.74521255493,0.512434482574
1560244288127474070,-0.00516848524745,0.00175487168599,-1.75042805495e-05,0.220764189959,-9.78530311584,0.492762714624
1560244288131391287,-0.00355829484761,0.00287613281999,-0.00113876536781,0.239993095398,-9.74539089203,0.492054134607
1560244288135308504,-0.0039201252165,0.00139304132125,-0.00140100318474,0.239993095398,-9.74539089203,0.492054134607
1560244288139225721,-0.00530362408608,-0.00133836488732,-1.75042805495e-05,0.239987790585,-9.76519393921,0.512121677399
1560244288143141747,-0.00297009146821,-0.00289291257286,-1.75042805495e-05,0.239668130875,-9.74522972107,0.511989712715
1560244288147058964,-0.00023857736676,-0.00016139851741,-1.75042805495e-05,0.239982575178,-9.78499698639,0.532189190388
1560244288150976419,-6.76363852108e-05,0.00350020104088,-1.75042805495e-05,0.220449760556,-9.74553585052,0.472563266754
1560244288154893637,-0.00186881639575,0.00344435025054,-0.00176283356268,0.260500729084,-9.78533840179,0.49187323451
1560244288158810854,-0.00355829484761,0.00175487168599,-0.000720989811268,0.260181039572,-9.76537322998,0.491741329432
1560244288162728071,-0.0032752189468,0.00175487168599,-1.75042805495e-05,0.239998310804,-9.72558879852,0.471986621618
1560244288166645050,-0.0030820540759,0.00175487168599,-1.75042805495e-05,0.239987790585,-9.76519393921,0.512121677399
1560244288170562267,-0.00355829484761,-0.000500121529334,-1.75042805495e-05,0.220119550824,-9.76517677307,0.512566447258
1560244288174479485,-0.00355829484761,-0.00472744781176,-1.75042805495e-05,0.239993095398,-9.74539089203,0.492054134607
1560244288178395748,-0.00429442116693,-0.00348111591302,-0.00176283356268,0.220119550824,-9.76517677307,0.512566447258
1560244288182312965,-0.0035818987402,-0.00175939068198,-4.11081737328e-05,0.259536385536,-9.74524784088,0.51154500246
1560244288186229944,-0.00355829484761,0.000972499705298,-1.75042805495e-05,0.220124810934,-9.74537372589,0.492498874664
1560244288190146208,-0.00376091909477,0.00524553004652,-0.00176283356268,0.240637689829,-9.7655172348,0.472250461578
1560244288194422960,-0.00530362408608,0.00524553004652,-0.00176283356268,0.220124810934,-9.74537372589,0.492498874664
1560244288198340416,-0.00312931994024,0.00132589678354,-1.75042805495e-05,0.199931591749,-9.74519443512,0.512879252434
1560244288202257633,-0.00181296560913,9.54246752372e-06,-1.75042805495e-05,0.240312755108,-9.76535511017,0.492186069489
1560244288206173897,-0.00246821206583,9.54246752372e-06,-0.000672750753636,0.220449760556,-9.74553585052,0.472563266754
1560244288210090399,-0.00355829484761,9.54246752372e-06,-0.00176283356268,0.239668130875,-9.74522972107,0.511989712715
1560244288214006662,-0.00355829484761,0.000890188353802,-0.00176283356268,0.240632474422,-9.78532028198,0.49231800437
1560244288217922926,-0.00530362408608,0.00175487168599,-0.00176283356268,0.239993095398,-9.74539089203,0.492054134607
1560244288221839428,-0.00530362408608,0.000648665121289,-0.00176283356268,0.240318030119,-9.74555301666,0.472118556499
1560244288225756645,-0.00355829484761,9.54246752372e-06,-1.75042805495e-05,0.220114290714,-9.78497982025,0.532633900642
1560244288229674101,-0.00355829484761,0.00134281711703,-1.75042805495e-05,0.240312755108,-9.76535511017,0.492186069489
1560244288233590364,-0.00355829484761,0.00350020104088,-0.00176283356268,0.239993095398,-9.74539089203,0.492054134607
1560244288237507820,-0.00355829484761,0.00350020104088,-0.00176283356268,0.219805121422,-9.72540950775,0.492366939783
1560244288241425037,-0.00275810294922,0.00444533825488,-0.000962641644274,0.239998310804,-9.72558879852,0.471986621618
1560244288245342493,-0.00355829484761,0.00171365247183,-1.75042805495e-05,0.239662855864,-9.76503181458,0.532057285309
1560244288249258757,-0.00458477350159,9.54246752372e-06,-1.75042805495e-05,0.239993095398,-9.74539089203,0.492054134607
1560244288253175020,-0.00530362408608,0.000275764977993,-0.00176283356268,0.220124810934,-9.74537372589,0.492498874664
1560244288257091522,-0.00530362408608,0.00425859869778,-0.00176283356268,0.240307509899,-9.78515911102,0.512253642082
1560244288261007786,-0.00530362408608,0.00524553004652,-1.75042805495e-05,0.239343196154,-9.74506759644,0.531925320625
1560244288264924049,-0.00530362408608,0.00524553004652,-1.75042805495e-05,0.260186284781,-9.74557113647,0.471673816442
1560244288268840551,-0.00109544535585,0.00452800988297,-1.75042805495e-05,0.200576230884,-9.76531982422,0.493075549603
1560244288272757769,0.0016358092823,0.00520364646695,-1.75042805495e-05,0.220449760556,-9.74553585052,0.472563266754
1560244288276674271,-6.76363852108e-05,0.000811063888365,-0.000961312112602,0.221094399691,-9.76566123962,0.452759623528
1560244288280590534,-0.00355829484761,9.54246752372e-06,-0.00176283356268,0.239993095398,-9.74539089203,0.492054134607
1560244288284506798,-0.00355829484761,9.54246752372e-06,-0.00176283356268,0.221094399691,-9.76566123962,0.452759623528
1560244288288424253,-0.00355829484761,0.00175487168599,-0.00176283356268,0.220124810934,-9.74537372589,0.492498874664
1560244288292340517,-0.00355829484761,0.00175487168599,-0.00176283356268,0.219799861312,-9.74521255493,0.512434482574
1560244288296257019,-0.00355829484761,0.00111923913988,-1.75042805495e-05,0.221089139581,-9.78546524048,0.472827136517
1560244288300173283,-0.00355829484761,9.54246752372e-06,-1.75042805495e-05,0.220449760556,-9.74553585052,0.472563266754
1560244288304089546,-0.00355829484761,9.54246752372e-06,-0.00087852881779,0.220124810934,-9.74537372589,0.492498874664
1560244288308006048,-0.00181296560913,0.00175487168599,-0.00525349192321,0.239668130875,-9.74522972107,0.511989712715
1560244288311922312,-0.000726310757428,0.00175487168599,-0.00416683706245,0.259856075048,-9.76521205902,0.511676907539
1560244288315838575,-6.76363852108e-05,-0.000317249589609,-0.00143604150112,0.220769450068,-9.76550006866,0.472695201635
1560244288319755077,-0.00269236382684,-0.000423423049626,-1.75042805495e-05,0.240642994642,-9.74571418762,0.452182978392
1560244288323671341,-0.00355829484761,9.54246752372e-06,-1.75042805495e-05,0.21947491169,-9.7450504303,0.532370090485
1560244288327588797,-0.00355829484761,9.54246752372e-06,-1.75042805495e-05,0.21947491169,-9.7450504303,0.532370090485
1560244288331505060,-0.00355829484761,9.54246752372e-06,-1.75042805495e-05,0.240632474422,-9.78532028198,0.49231800437
1560244288335421324,-0.00181296560913,2.75011255086e-05,-0.00178079221967,0.200576230884,-9.76531982422,0.493075549603
1560244288339338779,-0.00181296560913,0.000750488950667,-0.00250378000489,0.239987790585,-9.76519393921,0.512121677399
1560244288343255997,-0.00181296560913,9.54246752372e-06,-1.75042805495e-05,0.240637689829,-9.7655172348,0.472250461578
1560244288347172499,-0.00304388751566,9.54246752372e-06,-1.75042805495e-05,0.220449760556,-9.74553585052,0.472563266754
1560244288351088762,-0.00402888157677,9.54246752372e-06,-1.75042805495e-05,0.21947491169,-9.7450504303,0.532370090485
1560244288355006456,-0.00530362408608,9.54246752372e-06,-1.75042805495e-05,0.220119550824,-9.76517677307,0.512566447258
1560244288358922720,-0.00530362408608,9.54246752372e-06,-1.75042805495e-05,0.239668130875,-9.74522972107,0.511989712715
1560244288362839937,-0.00530362408608,-0.00167376839749,-1.75042805495e-05,0.200901180506,-9.76548194885,0.473139941692
1560244288366756439,-0.00448206767445,-0.000812013953529,-1.75042805495e-05,0.220114290714,-9.78497982025,0.532633900642
1560244288370673656,-0.00355829484761,0.00208245298086,-0.00176283356268,0.260181039572,-9.76537322998,0.491741329432
1560244288374590158,-0.00240881452362,0.00524553004652,-0.00176283356268,0.239678651094,-9.70562362671,0.471854686737
1560244288378507376,-0.00220325460668,0.00271962302424,-0.00176283356268,0.220449760556,-9.74553585052,0.472563266754
1560244288382424831,-0.00355829484761,9.54246752372e-06,-0.000386290067654,0.220119550824,-9.76517677307,0.512566447258
1560244288386341095,-0.00355829484761,-0.00173578679096,-1.75042805495e-05,0.25986135006,-9.74540901184,0.49160939455
1560244288390257359,-0.00195656716967,-0.00173578679096,-1.75042805495e-05,0.220444500446,-9.76533794403,0.492630809546
1560244288394173861,-0.00265513163632,0.000851708485053,-0.000859670328798,0.240312755108,-9.76535511017,0.492186069489
1560244288398091078,-0.00181296560913,0.00358314581673,-0.00176283356268,0.200895920396,-9.78528499603,0.493207454681
1560244288402007341,-0.000744685456239,0.00524553004652,-0.000694553374158,0.240642994642,-9.74571418762,0.452182978392
1560244288405924797,-0.00212192359366,0.00524553004652,-1.75042805495e-05,0.280049324036,-9.76539134979,0.491296589375
1560244288409841061,-0.00355829484761,0.00524553004652,-1.75042805495e-05,0.219799861312,-9.74521255493,0.512434482574
1560244288413758516,-0.00181296560913,0.00524553004652,-1.75042805495e-05,0.240642994642,-9.74571418762,0.452182978392
1560244288417674780,-0.00181296560913,0.00220413087181,-1.75042805495e-05,0.220444500446,-9.76533794403,0.492630809546
1560244288421591282,-0.00355829484761,9.54246752372e-06,-1.75042805495e-05,0.240637689829,-9.7655172348,0.472250461578
1560244288425508499,-0.00355829484761,-0.00173711682936,-1.75042805495e-05,0.220444500446,-9.76533794403,0.492630809546
1560244288429424763,-0.00355829484761,-0.00348111591302,-1.75042805495e-05,0.240323275328,-9.72574996948,0.45205104351
1560244288433342218,-0.00355829484761,-0.00150789725693,-1.75042805495e-05,0.239993095398,-9.74539089203,0.492054134607
1560244288437258482,-0.00234502734932,9.54246752372e-06,-0.00123077180918,0.240312755108,-9.76535511017,0.492186069489
1560244288441175938,-0.00226692441604,0.00220883052318,-0.00176283356268,0.201226130128,-9.76564311981,0.453204363585
1560244288445092201,-0.004997501806,0.00206099398649,-0.000323626568288,0.220764189959,-9.78530311584,0.492762714624
1560244288449009418,-0.00462350956143,9.54246752372e-06,-1.75042805495e-05,0.240307509899,-9.78515911102,0.512253642082
1560244288452925920,-0.00355829484761,9.54246752372e-06,-1.75042805495e-05,0.220764189959,-9.78530311584,0.492762714624
1560244288456842184,-0.000907296597548,0.000915211476277,-0.000923173322339,0.21947491169,-9.7450504303,0.532370090485
1560244288460759878,-0.00021413375358,0.00190136906535,-0.00161633618942,0.260505974293,-9.76553535461,0.471805751324
1560244288464677095,-0.00181296560913,0.00236750725826,-1.75042805495e-05,0.220124810934,-9.74537372589,0.492498874664
1560244288468593597,-0.00355829484761,0.00175487168599,-1.75042805495e-05,0.200586751103,-9.72571468353,0.452940523624
1560244288472509861,-0.00355829484761,0.00175487168599,-1.75042805495e-05,0.240312755108,-9.76535511017,0.492186069489
1560244288476426125,-0.00470522040909,9.54246752372e-06,-0.00176283356268,0.21947491169,-9.7450504303,0.532370090485
1560244288480343580,-0.00514273677168,0.00159398437343,-0.00176283356268,0.240312755108,-9.76535511017,0.492186069489
1560244288484259844,-0.00530362408608,0.00175487168599,-0.00268352710143,0.220769450068,-9.76550006866,0.472695201635
1560244288488176107,-0.00536828380414,9.54246752372e-06,-1.75042805495e-05,0.239993095398,-9.74539089203,0.492054134607
1560244288492092609,-0.00704895332456,9.54246752372e-06,-1.75042805495e-05,0.239993095398,-9.74539089203,0.492054134607
1560244288496008873,-0.00675895192671,0.000299543862041,-1.75042805495e-05,0.219805121422,-9.72540950775,0.492366939783
1560244288499925375,-0.00530362408608,0.00303050287223,-0.00129313541361,0.259856075048,-9.76521205902,0.511676907539
1560244288503841639,-0.00530362408608,0.00246956456918,-0.00299284449749,0.239668130875,-9.74522972107,0.511989712715
1560244288507757902,-0.00380295002946,9.54246752372e-06,-0.00176283356268,0.239998310804,-9.72558879852,0.471986621618
1560244288511674404,-0.00181296560913,0.000750654864902,-0.00176283356268,0.240318030119,-9.74555301666,0.472118556499
1560244288515590668,-0.00181296560913,0.0034814128146,-0.00176283356268,0.221089139581,-9.78546524048,0.472827136517
1560244288519506931,-0.00452481830066,0.00253367752336,-0.000796310085449,0.240312755108,-9.76535511017,0.492186069489
1560244288523423433,-0.00509726446398,9.54246752372e-06,-1.75042805495e-05,0.240318030119,-9.74555301666,0.472118556499
1560244288527339697,-0.00355829484761,9.54246752372e-06,-1.75042805495e-05,0.240637689829,-9.7655172348,0.472250461578
1560244288531256199,-0.0039905967674,9.54246752372e-06,-1.75042805495e-05,0.220124810934,-9.74537372589,0.492498874664
1560244288535172462,-0.00388601180681,9.54246752372e-06,-0.00143511659528,0.25986135006,-9.74540901184,0.49160939455
1560244288539089680,-0.00421655526489,9.54246752372e-06,-0.00110457312893,0.220449760556,-9.74553585052,0.472563266754
1560244288543006182,-0.00530362408608,-0.00163406885505,-1.75042805495e-05,0.239662855864,-9.76503181458,0.532057285309
1560244288546923399,-0.00530362408608,-0.00348111591302,-1.75042805495e-05,0.239987790585,-9.76519393921,0.512121677399
1560244288550839901,-0.0051787917321,-0.00323145121194,-1.75042805495e-05,0.220769450068,-9.76550006866,0.472695201635
1560244288554756165,-0.00355829484761,0.00111972284807,-1.75042805495e-05,0.220769450068,-9.76550006866,0.472695201635
1560244288558672428,-0.00355829484761,0.003150170735,-1.75042805495e-05,0.240312755108,-9.76535511017,0.492186069489
1560244288562587976,-0.00355829484761,0.00175487168599,-1.75042805495e-05,0.260505974293,-9.76553535461,0.471805751324
1560244288566504240,-0.00413336753519,9.54246752372e-06,-0.000592576982519,0.239993095398,-9.74539089203,0.492054134607
1560244288570419550,-0.00374385132192,9.54246752372e-06,-0.000203060759501,0.240318030119,-9.74555301666,0.472118556499
1560244288574336052,-0.00450370220751,9.54246752372e-06,-1.75042805495e-05,0.239987790585,-9.76519393921,0.512121677399
1560244288578252316,-0.00351855202999,9.54246752372e-06,-1.75042805495e-05,0.220449760556,-9.74553585052,0.472563266754
1560244288582168341,-0.00181296560913,0.00103470142951,-1.75042805495e-05,0.220449760556,-9.74553585052,0.472563266754
1560244288586084843,-0.00207856293213,0.00175487168599,-1.75042805495e-05,0.239668130875,-9.74522972107,0.511989712715
1560244288590001106,-0.00230745068667,0.00175487168599,-0.00251919255028,0.220444500446,-9.76533794403,0.492630809546
1560244288593917608,-0.00181296560913,0.00399119425073,-0.00176283356268,0.239993095398,-9.74539089203,0.492054134607
1560244288597833872,-0.00328920715905,0.00376928869354,-0.00176283356268,0.279404640198,-9.74526596069,0.511100292206
1560244288601750135,-0.00427474033226,-0.000706903025342,-0.00176283356268,0.239993095398,-9.74539089203,0.492054134607
1560244288605665684,-0.00530362408608,-0.00173578679096,-0.00176283356268,0.240312755108,-9.76535511017,0.492186069489
1560244288609582901,-0.00436170852837,9.54246752372e-06,-0.000820917981405,0.238698512316,-9.72494220734,0.551729023457
1560244288613499165,-0.00181296560913,9.54246752372e-06,-1.75042805495e-05,0.220119550824,-9.76517677307,0.512566447258
1560244288617415667,-0.00181296560913,9.54246752372e-06,-1.75042805495e-05,0.239662855864,-9.76503181458,0.532057285309
1560244288621331930,-0.00355829484761,-0.00173578679096,-1.75042805495e-05,0.239662855864,-9.76503181458,0.532057285309
1560244288625248194,-0.00355829484761,-0.00312879121293,-1.75042805495e-05,0.240637689829,-9.7655172348,0.472250461578
1560244288629164696,-0.00355829484761,-0.00110263315441,-0.000650657925677,0.260186284781,-9.74557113647,0.471673816442
1560244288633080959,-0.00355829484761,9.54246752372e-06,-0.00176283356268,0.239668130875,-9.74522972107,0.511989712715
1560244288636998653,-0.00355829484761,0.000869159455832,-0.00176283356268,0.239987790585,-9.76519393921,0.512121677399
1560244288640914679,-0.00355829484761,0.00165515698997,-0.00166311886302,0.239993095398,-9.74539089203,0.492054134607
1560244288644832373,-0.00247296939156,9.54246752372e-06,-1.75042805495e-05,0.239673376083,-9.72542667389,0.491922229528
1560244288648748636,-0.00213868722148,-0.00141006517488,-1.75042805495e-05,0.220769450068,-9.76550006866,0.472695201635
1560244288652664900,-0.00486932771065,0.00263160826602,-1.75042805495e-05,0.240312755108,-9.76535511017,0.492186069489
1560244288656581402,-0.00530362408608,0.00579654669411,-1.75042805495e-05,0.219799861312,-9.74521255493,0.512434482574
1560244288660497665,-0.00530362408608,0.0054546174546,-0.00155374614938,0.240642994642,-9.74571418762,0.452182978392
1560244288664413929,-0.00278178027874,0.000978357126028,-0.00176283356268,0.219805121422,-9.72540950775,0.492366939783
1560244288668331385,-0.00181296560913,-8.07580509506e-06,-0.00174521528982,0.260181039572,-9.76537322998,0.491741329432
1560244288672247648,-0.00181296560913,-0.00173578679096,-1.75042805495e-05,0.220119550824,-9.76517677307,0.512566447258
1560244288676165104,-6.76363852108e-05,-0.00173578679096,-1.75042805495e-05,0.240962654352,-9.76567840576,0.452314913273
1560244288680082321,-0.00129711130294,-0.000506311848881,-1.75042805495e-05,0.219155222178,-9.72508621216,0.532238125801
1560244288683998823,-0.00181296560913,0.000479406701303,-1.75042805495e-05,0.200581490993,-9.74551773071,0.473008036613
1560244288687916040,-0.00326881977384,0.00321072594781,-0.00147335848167,0.220124810934,-9.74537372589,0.492498874664
1560244288691832304,-0.00355829484761,0.00454969283765,-0.00176283356268,0.220119550824,-9.76517677307,0.512566447258
1560244288695748806,-0.00355829484761,0.00181886699109,-8.14995829832e-05,0.240637689829,-9.7655172348,0.472250461578
1560244288699666023,-0.00530362408608,9.54246752372e-06,-1.75042805495e-05,0.220124810934,-9.74537372589,0.492498874664
1560244288703582525,-0.00355829484761,9.54246752372e-06,-1.75042805495e-05,0.240323275328,-9.72574996948,0.45205104351
1560244288707499743,-0.00240987200246,9.54246752372e-06,-1.75042805495e-05,0.239673376083,-9.72542667389,0.491922229528
1560244288711416006,-0.00181296560913,0.000397947747826,-1.75042805495e-05,0.240318030119,-9.74555301666,0.472118556499
1560244288715333462,-0.0031874892243,0.00175487168599,-1.75042805495e-05,0.239993095398,-9.74539089203,0.492054134607
1560244288719249725,-0.0046888868676,9.54246752372e-06,-1.75042805495e-05,0.200256541371,-9.74535560608,0.492943614721
1560244288723166227,-0.00195796630805,9.54246752372e-06,-0.00161783286013,0.260175764561,-9.78517723083,0.511808872223
1560244288727083445,-0.00265378976253,0.000850366611284,-0.000922009388248,0.220449760556,-9.74553585052,0.472563266754
1560244288730999708,-0.00530362408608,0.00183567828439,-1.75042805495e-05,0.221094399691,-9.76566123962,0.452759623528
1560244288734917164,-0.00637066664499,0.00350020104088,-1.75042805495e-05,0.239993095398,-9.74539089203,0.492054134607
1560244288738833427,-0.00704895332456,0.00288557128156,-1.75042805495e-05,0.239668130875,-9.74522972107,0.511989712715
1560244288742750883,-0.00446311998974,9.54246752372e-06,-1.75042805495e-05,0.220449760556,-9.74553585052,0.472563266754
1560244288746667147,-0.00181296560913,-0.00173578679096,-1.75042805495e-05,0.220449760556,-9.74553585052,0.472563266754
1560244288750584602,-0.00333256519506,-0.00173578679096,-1.75042805495e-05,0.240637689829,-9.7655172348,0.472250461578
1560244288754500866,-0.00530362408608,0.000769270023801,-0.000777231864539,0.220769450068,-9.76550006866,0.472695201635
1560244288758417130,-0.00530362408608,0.00524553004652,-0.00350816268474,0.220449760556,-9.74553585052,0.472563266754
1560244288762334824,-0.00355829484761,0.00251422329521,-0.00176283356268,0.260186284781,-9.74557113647,0.471673816442
1560244288766251087,-0.00530362408608,9.54246752372e-06,-1.75042805495e-05,0.239993095398,-9.74539089203,0.492054134607
1560244288770168543,-0.00409148373706,9.54246752372e-06,-1.75042805495e-05,0.220114290714,-9.78497982025,0.532633900642
1560244288774084806,-0.00181296560913,0.000461954852702,-1.75042805495e-05,0.240312755108,-9.76535511017,0.492186069489
1560244288778001070,-0.00181296560913,0.00319273964159,-0.00145537217621,0.220769450068,-9.76550006866,0.472695201635
1560244288781917572,-0.00423617520613,0.00417808130897,-0.00176283356268,0.240632474422,-9.78532028198,0.49231800437
1560244288785833836,-0.00530362408608,0.00358231407523,-9.96173279075e-05,0.239668130875,-9.74522972107,0.511989712715
1560244288789751291,-0.00355829484761,0.000851031915708,-1.75042805495e-05,0.240312755108,-9.76535511017,0.492186069489
1560244288793666601,-0.00515985597161,-0.00173578679096,-0.000161272398618,0.220124810934,-9.74537372589,0.492498874664
1560244288797582865,-0.00355829484761,-0.000607355619539,-0.00176283356268,0.220444500446,-9.76533794403,0.492630809546
1560244288801500320,-0.00218258197148,0.000379158825629,-0.00139321719109,0.220444500446,-9.76533794403,0.492630809546
1560244288805416584,-0.00355829484761,0.00175487168599,-1.75042805495e-05,0.220444500446,-9.76533794403,0.492630809546
1560244288809332848,-0.00589836998347,0.00175487168599,-1.75042805495e-05,0.240312755108,-9.76535511017,0.492186069489
1560244288813250303,-0.00546801750107,0.00175487168599,-1.75042805495e-05,0.220449760556,-9.74553585052,0.472563266754
1560244288817167521,-0.00273657215283,0.00257659443558,-1.75042805495e-05,0.220449760556,-9.74553585052,0.472563266754
1560244288821084023,-0.00181296560913,0.00343803966449,-1.75042805495e-05,0.239987790585,-9.76519393921,0.512121677399
1560244288825000286,-0.00181296560913,0.000707540954548,-1.75042805495e-05,0.239993095398,-9.74539089203,0.492054134607
1560244288828917742,-0.00355829484761,9.54246752372e-06,-0.00176283356268,0.220124810934,-9.74537372589,0.492498874664
1560244288832834005,-0.00355829484761,9.54246752372e-06,-0.00303642509058,0.220124810934,-9.74537372589,0.492498874664
1560244288836750269,-0.0030446009076,9.54246752372e-06,-0.002994468779,0.240637689829,-9.7655172348,0.472250461578
1560244288840667725,-0.00181296560913,9.54246752372e-06,-0.00176283356268,0.259216696024,-9.72528362274,0.511413097382
1560244288844583988,-0.00355829484761,9.54246752372e-06,-1.75042805495e-05,0.239998310804,-9.72558879852,0.471986621618
1560244288848500490,-0.00528351099837,9.54246752372e-06,-1.75042805495e-05,0.220124810934,-9.74537372589,0.492498874664
1560244288852417707,-0.00530362408608,9.54246752372e-06,-1.75042805495e-05,0.240312755108,-9.76535511017,0.492186069489
1560244288856333971,-0.003352033475,9.54246752372e-06,-1.75042805495e-05,0.220449760556,-9.74553585052,0.472563266754
1560244288860251427,-0.00181296560913,9.54246752372e-06,-1.75042805495e-05,0.240318030119,-9.74555301666,0.472118556499
1560244288864168644,-0.00224593094832,0.00175487168599,-1.75042805495e-05,0.240312755108,-9.76535511017,0.492186069489
1560244288868085146,-0.00355829484761,0.00175487168599,-1.75042805495e-05,0.239668130875,-9.74522972107,0.511989712715
1560244288872002363,-0.00289895585275,9.54246752372e-06,-1.75042805495e-05,0.220444500446,-9.76533794403,0.492630809546
1560244288875918865,-0.00345724126666,9.54246752372e-06,-1.75042805495e-05,0.221089139581,-9.78546524048,0.472827136517
1560244288879836082,-0.00530362408608,9.54246752372e-06,-1.75042805495e-05,0.21947491169,-9.7450504303,0.532370090485
1560244288883752346,-0.00530362408608,0.00013490981091,-1.75042805495e-05,0.239673376083,-9.72542667389,0.491922229528
1560244288887668848,-0.00530362408608,0.002865898674,-1.75042805495e-05,0.220124810934,-9.74537372589,0.492498874664
1560244288891586065,-0.00530362408608,0.00279648512911,-1.75042805495e-05,0.21947491169,-9.7450504303,0.532370090485
1560244288895502567,-0.00530362408608,9.54246752372e-06,-1.75042805495e-05,0.240637689829,-9.7655172348,0.472250461578
1560244288899420023,-0.00530362408608,9.54246752372e-06,-0.00176283356268,0.240312755108,-9.76535511017,0.492186069489
1560244288903336287,-0.00374021021742,9.54246752372e-06,-0.00176283356268,0.220124810934,-9.74537372589,0.492498874664
1560244288907252789,-0.00181296560913,9.54246752372e-06,-0.000820917981405,0.2194801718,-9.72524833679,0.512302517891
1560244288911169052,-0.0018563617295,9.54246752372e-06,-0.00176283356268,0.260830938816,-9.76569652557,0.451870143414
1560244288915085554,-0.00355829484761,9.54246752372e-06,-0.00176283356268,0.239668130875,-9.74522972107,0.511989712715
1560244288919001818,-0.00530362408608,9.54246752372e-06,-0.00176283356268,0.220119550824,-9.76517677307,0.512566447258
1560244288922919035,-0.00655893132727,9.54246752372e-06,-0.00176283356268,0.200576230884,-9.76531982422,0.493075549603
1560244288926835537,-0.00704895332456,9.54246752372e-06,-0.00126768316833,0.239993095398,-9.74539089203,0.492054134607
1560244288930752754,-0.00556775050081,9.54246752372e-06,-1.75042805495e-05,0.240962654352,-9.76567840576,0.452314913273
1560244288934670210,-0.00458145895624,9.54246752372e-06,-1.75042805495e-05,0.220119550824,-9.76517677307,0.512566447258
1560244288938586473,-0.00355829484761,0.00171729095011,-1.75042805495e-05,0.240312755108,-9.76535511017,0.492186069489
1560244288942502737,-0.000865306564618,0.00350020104088,-1.75042805495e-05,0.220449760556,-9.74553585052,0.472563266754
1560244288946420193,-0.00025602005309,0.00524553004652,-0.00176283356268,0.239673376083,-9.72542667389,0.491922229528
1560244288950337410,-0.00181296560913,0.00524553004652,-0.00176283356268,0.239987790585,-9.76519393921,0.512121677399
1560244288954253912,-0.00355829484761,0.00308539018721,-0.000432315116922,0.220124810934,-9.74537372589,0.492498874664
1560244288958171129,-0.00355829484761,0.000354085763728,-0.00176283356268,0.220444500446,-9.76533794403,0.492630809546
1560244288962087631,-0.00181296560913,0.00303647532467,-0.00176283356268,0.220439240336,-9.78514194489,0.512698292732
1560244288966003895,-0.00181296560913,0.00524553004652,-0.00176283356268,0.220439240336,-9.78514194489,0.512698292732
1560244288969920158,-0.00267897864366,0.00437951712752,-1.75042805495e-05,0.239668130875,-9.74522972107,0.511989712715
1560244288973836660,-0.00366499861552,9.54246752372e-06,-0.000124208051126,0.240637689829,-9.7655172348,0.472250461578
1560244288977752924,-0.00530362408608,-0.00108245218944,-0.00176283356268,0.219799861312,-9.74521255493,0.512434482574
1560244288981670141,-0.00355829484761,-0.00140337495775,-0.00143042172497,0.239998310804,-9.72558879852,0.471986621618
1560244288985586643,-0.00224031876402,9.54246752372e-06,-1.75042805495e-05,0.220130071044,-9.72557163239,0.472431361675
1560244288989504814,-0.00181296560913,0.000569157937031,-0.00057711977047,0.240307509899,-9.78515911102,0.512253642082
1560244288993421316,-0.00335825351138,0.00175487168599,-0.00176283356268,0.20154581964,-9.78560829163,0.453336298466
1560244288997337580,-0.00355829484761,0.000969839315698,-0.000977801163752,0.240312755108,-9.76535511017,0.492186069489
1560244289001255035,-0.00355829484761,9.54246752372e-06,-1.75042805495e-05,0.220769450068,-9.76550006866,0.472695201635
1560244289005172253,-0.00456997429509,9.54246752372e-06,-1.75042805495e-05,0.2194801718,-9.72524833679,0.512302517891
1560244289009088516,-0.00530362408608,9.54246752372e-06,-1.75042805495e-05,0.220124810934,-9.74537372589,0.492498874664
1560244289013006210,-0.00406513227458,9.54246752372e-06,-1.75042805495e-05,0.220124810934,-9.74537372589,0.492498874664
1560244289016922474,-0.00181296560913,-0.00173578679096,-1.75042805495e-05,0.219799861312,-9.74521255493,0.512434482574
1560244289020839930,-0.00327743923309,-0.000271313150217,-1.75042805495e-05,0.219805121422,-9.72540950775,0.492366939783
1560244289024757147,-0.00426334427756,0.00141964136636,-0.000722553728132,0.240632474422,-9.78532028198,0.49231800437
1560244289028674603,-0.00530362408608,0.00519134722602,-0.00176283356268,0.240312755108,-9.76535511017,0.492186069489
1560244289032591820,-0.00262645491547,0.00524553004652,-0.000830993607234,0.220444500446,-9.76533794403,0.492630809546
1560244289036508322,-0.000239826013953,0.00507334043931,-0.00159064392819,0.239993095398,-9.74539089203,0.492054134607
1560244289040425539,-0.0029711417873,0.00118384862057,-1.75042805495e-05,0.239993095398,-9.74539089203,0.492054134607
1560244289044341803,-0.00490557521495,9.54246752372e-06,-1.75042805495e-05,0.199936851859,-9.72539138794,0.492811709642
1560244289048259258,-0.00355829484761,9.54246752372e-06,-0.00140179982965,0.239673376083,-9.72542667389,0.491922229528
1560244289052176476,-0.00355829484761,0.00238003256361,-0.00413332352066,0.240957409143,-9.78548240662,0.47238239646
1560244289056092978,-0.00355829484761,0.00350020104088,-0.00525349192321,0.23934841156,-9.72526550293,0.511857867241
1560244289060010195,-0.00181296560913,0.00260625191014,-0.000911453374022,0.220439240336,-9.78514194489,0.512698292732
1560244289063927650,-0.00199719085081,0.00524553004652,-1.75042805495e-05,0.221089139581,-9.78546524048,0.472827136517
1560244289067844868,-0.00530362408608,0.0041672486577,-1.75042805495e-05,0.260495454073,-9.80514144897,0.511940777302
1560244289071762562,-0.00704895332456,9.54246752372e-06,-1.75042805495e-05,0.260175764561,-9.78517723083,0.511808872223
1560244289075678825,-0.00574428023962,9.54246752372e-06,-1.75042805495e-05,0.220124810934,-9.74537372589,0.492498874664
1560244289079596043,-0.00355829484761,9.54246752372e-06,-1.75042805495e-05,0.239343196154,-9.74506759644,0.531925320625
1560244289083512545,-0.00355829484761,-0.00152111285655,-1.75042805495e-05,0.240318030119,-9.74555301666,0.472118556499
1560244289087428808,-0.00432886000694,9.54246752372e-06,-0.00176283356268,0.220444500446,-9.76533794403,0.492630809546
1560244289091345072,-0.00529248831289,9.54246752372e-06,-0.0017516977892,0.221089139581,-9.78546524048,0.472827136517
1560244289095261574,-0.00355829484761,0.00100608961487,-1.75042805495e-05,0.240957409143,-9.78548240662,0.47238239646
1560244289099177837,-0.0033219501115,0.00175487168599,-1.75042805495e-05,0.25986135006,-9.74540901184,0.49160939455
1560244289103094339,-0.00059110242752,0.000533008508196,-1.75042805495e-05,0.239998310804,-9.72558879852,0.471986621618
1560244289107010603,-0.000991183865472,9.54246752372e-06,-1.75042805495e-05,0.258886486292,-9.74492454529,0.551416158676
1560244289110926867,-0.00500531297185,9.54246752372e-06,-1.75042805495e-05,0.199936851859,-9.72539138794,0.492811709642
1560244289114843369,-0.00461629666537,0.00350020104088,-0.00107550612478,0.220769450068,-9.76550006866,0.472695201635
1560244289118759632,-0.00355829484761,0.00015453002061,-0.00169033978633,0.220769450068,-9.76550006866,0.472695201635
1560244289122677088,-0.00447186563177,9.54246752372e-06,-0.00176283356268,0.239993095398,-9.74539089203,0.492054134607
1560244289126594305,-0.00530362408608,9.54246752372e-06,-1.75042805495e-05,0.240307509899,-9.78515911102,0.512253642082
1560244289130510569,-0.00416400701305,9.54246752372e-06,-1.75042805495e-05,0.259531140327,-9.76504993439,0.53161251545
1560244289134427071,-0.00181296560913,0.00175487168599,-1.75042805495e-05,0.200251281261,-9.76515865326,0.513011157513
1560244289138344288,-0.00317899829019,0.00175487168599,-1.75042805495e-05,0.239668130875,-9.74522972107,0.511989712715
1560244289142260790,-0.00530362408608,0.00350020104088,-0.00176283356268,0.239998310804,-9.72558879852,0.471986621618
1560244289146178007,-0.00371168819424,0.000316329169256,-0.000170897631016,0.220455020666,-9.72573280334,0.452495783567
1560244289150095463,-0.00181296560913,-0.00256872471222,-1.75042805495e-05,0.220119550824,-9.76517677307,0.512566447258
1560244289154011726,-0.00355829484761,-0.00166265628525,-1.75042805495e-05,0.240318030119,-9.74555301666,0.472118556499
1560244289157928944,-0.00461736537302,9.54246752372e-06,-1.75042805495e-05,0.240312755108,-9.76535511017,0.492186069489
1560244289161846399,-0.00355829484761,9.54246752372e-06,-0.00176283356268,0.240632474422,-9.78532028198,0.49231800437
1560244289165762663,-0.00355829484761,9.54246752372e-06,-0.00176283356268,0.239993095398,-9.74539089203,0.492054134607
1560244289169680119,-0.00355829484761,0.00122861281142,-0.00176283356268,0.220444500446,-9.76533794403,0.492630809546
1560244289173597336,-0.00355829484761,9.54246752372e-06,-0.000250447312873,0.239668130875,-9.74522972107,0.511989712715
1560244289177513838,-0.00355829484761,-0.000742898048972,-1.75042805495e-05,0.239993095398,-9.74539089203,0.492054134607
1560244289181431055,-0.00355829484761,-0.00347413497019,-1.75042805495e-05,0.240318030119,-9.74555301666,0.472118556499
1560244289185347319,-0.00257983972814,-0.000757331660274,-1.75042805495e-05,0.240312755108,-9.76535511017,0.492186069489
1560244289189264774,-0.00028704884338,0.000228954925007,-1.75042805495e-05,0.220124810934,-9.74537372589,0.492498874664
1560244289193181038,-0.00301775312936,0.00175487168599,-0.00242707927079,0.240318030119,-9.74555301666,0.472118556499
1560244289197093964,-0.00530362408608,9.54246752372e-06,-0.00350816268474,0.239668130875,-9.74522972107,0.511989712715
1560244289201010227,-0.00530362408608,9.54246752372e-06,-0.00207712935619,0.220124810934,-9.74537372589,0.492498874664
1560244289204927444,-0.00355829484761,9.54246752372e-06,-1.75042805495e-05,0.220444500446,-9.76533794403,0.492630809546
1560244289208843470,-0.00355829484761,9.54246752372e-06,-1.75042805495e-05,0.260175764561,-9.78517723083,0.511808872223
1560244289212760687,-0.00530362408608,9.54246752372e-06,-1.75042805495e-05,0.240318030119,-9.74555301666,0.472118556499
1560244289216677904,-0.00530362408608,-0.000129086480399,-1.75042805495e-05,0.240312755108,-9.76535511017,0.492186069489
1560244289220595121,-0.00530362408608,-0.00173578679096,-1.75042805495e-05,0.239668130875,-9.74522972107,0.511989712715
1560244289224511385,-0.00355829484761,9.54246752372e-06,-0.00176283356268,0.219799861312,-9.74521255493,0.512434482574
1560244289228427410,-0.00355829484761,9.54246752372e-06,-0.00311288690774,0.220119550824,-9.76517677307,0.512566447258
1560244289232344627,-0.00355829484761,9.54246752372e-06,-0.00176283356268,0.200576230884,-9.76531982422,0.493075549603
1560244289236260891,-0.00355829484761,9.54246752372e-06,-0.000186283800566,0.239993095398,-9.74539089203,0.492054134607
1560244289240177155,-0.00355829484761,0.000826169354368,-1.75042805495e-05,0.240312755108,-9.76535511017,0.492186069489
1560244289244094372,-0.00361549696459,0.00355740315023,-1.75042805495e-05,0.220124810934,-9.74537372589,0.492498874664
1560244289248011589,-0.00530362408608,0.00524553004652,-1.75042805495e-05,0.220130071044,-9.72557163239,0.472431361675
1560244289251927853,-0.00530362408608,0.00350020104088,-1.75042805495e-05,0.239668130875,-9.74522972107,0.511989712715
1560244289255845070,-0.00530362408608,0.00223044731176,-1.75042805495e-05,0.219799861312,-9.74521255493,0.512434482574
1560244289259762287,-0.00530362408608,9.54246752372e-06,-1.75042805495e-05,0.240318030119,-9.74555301666,0.472118556499
1560244289263678312,-0.00380793651911,9.54246752372e-06,-1.75042805495e-05,0.239993095398,-9.74539089203,0.492054134607
1560244289267594576,-0.00355829484761,9.54246752372e-06,-1.75042805495e-05,0.200576230884,-9.76531982422,0.493075549603
1560244289271511793,-0.00355829484761,9.54246752372e-06,-1.75042805495e-05,0.240637689829,-9.7655172348,0.472250461578
1560244289275428057,-0.00259592780379,9.54246752372e-06,-1.75042805495e-05,0.280374258757,-9.76555347443,0.471360981464
1560244289279344320,-0.0020153344183,9.54246752372e-06,-0.00176283356268,0.2194801718,-9.72524833679,0.512302517891
1560244289283261299,-0.00474678109749,9.54246752372e-06,-0.00176283356268,0.239668130875,-9.74522972107,0.511989712715
1560244289287178516,-0.00704895332456,9.54246752372e-06,-0.00219168272072,0.220449760556,-9.74553585052,0.472563266754
1560244289291095734,-0.00563390637771,9.54246752372e-06,-0.00492320963159,0.240312755108,-9.76535511017,0.492186069489
1560244289295011997,-0.00355829484761,0.000664829987418,-0.00459820439581,0.260175764561,-9.78517723083,0.511808872223
1560244289298929214,-0.00355829484761,0.00175487168599,-0.00350816268474,0.239673376083,-9.72542667389,0.491922229528
1560244289302846193,-0.00444027112748,0.00175487168599,-0.000880857260747,0.241602033377,-9.80560779572,0.452578723431
1560244289306762457,-0.00542551126865,0.000131429648699,-1.75042805495e-05,0.220444500446,-9.76533794403,0.492630809546
1560244289310678720,-0.00704895332456,0.00175487168599,-1.75042805495e-05,0.259866595268,-9.72560691833,0.471541881561
1560244289314595938,-0.00286116012956,0.00315163365715,-1.75042805495e-05,0.240312755108,-9.76535511017,0.492186069489
1560244289318511963,-6.76363852108e-05,0.00175487168599,-1.75042805495e-05,0.239993095398,-9.74539089203,0.492054134607
1560244289322429180,-6.76363852108e-05,0.00175487168599,-0.00059201954846,0.239993095398,-9.74539089203,0.492054134607
1560244289326346397,-6.76363852108e-05,0.00175487168599,-0.00176283356268,0.240637689829,-9.7655172348,0.472250461578
1560244289330263615,-6.76363852108e-05,0.000953349567964,-0.000961311415417,0.220439240336,-9.78514194489,0.512698292732
1560244289334179878,-0.00189674074328,9.54246752372e-06,-1.75042805495e-05,0.220769450068,-9.76550006866,0.472695201635
1560244289338095903,-0.00530362408608,9.54246752372e-06,-1.75042805495e-05,0.220769450068,-9.76550006866,0.472695201635
1560244289342013121,-0.00557117722863,9.54246752372e-06,-1.75042805495e-05,0.220769450068,-9.76550006866,0.472695201635
1560244289345929384,-0.00704895332456,9.54246752372e-06,0.00123564165605,0.220124810934,-9.74537372589,0.492498874664
1560244289349846601,-0.00704895332456,0.00274313174229,-1.75042805495e-05,0.221089139581,-9.78546524048,0.472827136517
1560244289353763819,-0.00556868255438,0.00524553004652,-0.0029780457592,0.219799861312,-9.74521255493,0.512434482574
1560244289357681036,-0.00530362408608,0.00277918831111,-0.00278715005116,0.239987790585,-9.76519393921,0.512121677399
1560244289361598253,-0.00530362408608,0.00175487168599,-0.00176283356268,0.25986135006,-9.74540901184,0.49160939455
1560244289365514517,-0.00530362408608,0.00524553004652,-0.000815534925654,0.220769450068,-9.76550006866,0.472695201635
1560244289369430780,-0.00337064863411,0.0068032130715,-1.75042805495e-05,0.218361243606,-9.65537166595,0.511840820312
1560244289373346806,-0.00181296560913,0.00407316705146,-0.00118986746134,0.218361243606,-9.65537166595,0.511840820312
1560244289377264023,-0.00139941430969,9.54246752372e-06,-0.00350816268474,0.240957409143,-9.78548240662,0.47238239646
1560244289381180286,-6.76363852108e-05,-0.00138954662977,-0.00210907369681,0.203128516674,-9.94484233856,0.514198422432
1560244289385097504,-0.00181296560913,9.54246752372e-06,-1.75042805495e-05,0.222975745797,-10.0240726471,0.594023823738
1560244289389013767,-0.00343856911261,0.00326074956427,-1.75042805495e-05,0.204092845321,-9.98493289948,0.494526714087
1560244289392930984,-0.00443785745306,0.00263443435011,-0.00176283356268,0.1786352247,-9.61573028564,0.472595274448
1560244289396847010,-0.00345241128252,9.54246752372e-06,-0.00176283356268,0.255859911442,-9.5156545639,0.510027885437
1560244289400764227,-0.000720970973793,9.54246752372e-06,-0.00285482813429,0.276708304882,-9.49635314941,0.429708838463
1560244289404680490,-0.000400214258846,9.54246752372e-06,-0.00317558483051,0.217087745667,-9.55570983887,0.491245597601
1560244289408597708,-0.00313110524671,9.54246752372e-06,-0.00176283356268,0.222042948008,-9.86516284943,0.493290424347
1560244289412514925,-0.00474450704999,0.000568659497207,-0.0012037165126,0.183899626136,-9.98475456238,0.514907002449
1560244289416430950,-0.00355829484761,0.00175487168599,-1.75042805495e-05,0.262728065252,-9.96469783783,0.532931804657
1560244289420348167,-0.00434349322017,9.54246752372e-06,-0.000802702672749,0.302139639854,-9.96457195282,0.551977872849
1560244289424264431,-0.00355829484761,3.48156670047e-05,-1.75042805495e-05,0.298164516687,-9.63580036163,0.470058739185
1560244289428181648,-0.00355829484761,0.00276633159763,-0.00102896415002,0.255865216255,-9.49585056305,0.489960372448
1560244289432097673,-0.00355829484761,0.00350020104088,-0.00176283356268,0.197869375348,-9.55601501465,0.451819181442
1560244289436014891,-0.00355829484761,0.0047377438298,-0.00176283356268,0.179604798555,-9.6360168457,0.432856023312
1560244289439931154,-0.00355829484761,0.00476795910972,-0.00303059171608,0.203453466296,-9.94500350952,0.494262844324
1560244289443847418,-0.00502137934244,0.00350020104088,-0.00176283356268,0.244602322578,-10.1338949203,0.594304680824
1560244289447763443,-0.00355829484761,9.54246752372e-06,-0.00176283356268,0.264656722546,-10.0448799133,0.493588268757
1560244289451680660,-0.00186883766529,9.54246752372e-06,-0.00176283356268,0.281967461109,-9.88518047333,0.492088139057
1560244289455596924,-0.000997170778419,0.00268440614895,-0.000833299138471,0.238559693098,-9.63574695587,0.471392989159
1560244289459514141,-0.00372833964354,0.00541557484246,-1.75042805495e-05,0.235048383474,-9.39633274078,0.449874311686
1560244289463430405,-0.00530362408608,0.00583534318382,-1.75042805495e-05,0.215499788523,-9.41627979279,0.450450956821
1560244289467346430,-0.00530362408608,0.00485014121014,-0.000412893179568,0.179604798555,-9.6360168457,0.432856023312
1560244289471262693,-0.0039228193765,0.00211939623919,-0.00176283356268,0.201205104589,-9.84485626221,0.533474445343
1560244289475179911,-0.00293651799944,0.00113309484495,-0.00176283356268,0.303423672915,-10.0246276855,0.53243803978
1560244289479112148,-0.00181296560913,9.54246752372e-06,-0.00176283356268,0.284200042486,-10.0447368622,0.513079166412
1560244289483013391,-0.00181296560913,9.54246752372e-06,-1.75042805495e-05,0.282942295074,-9.88566493988,0.432281374931
1560244289486929417,-0.00181296560913,9.54246752372e-06,-1.75042805495e-05,0.237089544535,-9.66472434998,0.591204404831
1560244289490845680,-0.00181296560913,9.54246752372e-06,-1.75042805495e-05,0.196255132556,-9.51560115814,0.511362075806
1560244289494762897,-0.00181296560913,0.00206919683017,-1.75042805495e-05,0.198524534702,-9.53653430939,0.391880452633
1560244289498679161,-0.00311281704126,0.00480005229961,-1.75042805495e-05,0.179104223847,-9.68528366089,0.512928187847
1560244289502596140,-0.00530362408608,0.00241967969176,-1.75042805495e-05,0.198616012931,-9.8039560318,0.652824163437
1560244289506512403,-0.00530362408608,-0.00151620770125,-1.75042805495e-05,0.280992597342,-9.88469600677,0.551894903183
1560244289510428667,-0.00530362408608,-0.00173578679096,-1.75042805495e-05,0.303460478783,-9.88600540161,0.391965448856
1560244289514344931,-0.00355829484761,9.54246752372e-06,-1.75042805495e-05,0.201849743724,-9.86498355865,0.513670802116
1560244289518260956,-0.0025667361555,9.54246752372e-06,-1.75042805495e-05,0.176829576492,-9.68415164948,0.652477383614
1560244289522177219,-0.00378979770027,0.000241045317529,-1.75042805495e-05,0.179279863834,-9.63585567474,0.452791601419
1560244289526094437,-0.00530362408608,0.00175487168599,-1.75042805495e-05,0.159752324224,-9.57659053802,0.373098194599
1560244289530010700,-0.00530362408608,9.54246752372e-06,-0.000475445325276,0.159555673599,-9.70522975922,0.513504862785
1560244289533926725,-0.00530362408608,-0.00143367511385,-0.00320605103124,0.219778820872,-9.82442474365,0.592704534531
1560244289537842989,-0.00462035813399,9.54246752372e-06,-0.00176283356268,0.261459827423,-9.84523296356,0.492269009352
1560244289541759253,-0.00355829484761,9.54246752372e-06,-9.41325434085e-05,0.283906638622,-9.92575645447,0.412609606981
1560244289545676470,-0.00181296560913,9.54246752372e-06,-1.75042805495e-05,0.260144233704,-9.90399646759,0.632213950157
1560244289549592495,-0.0019621237521,-0.00173578679096,-1.75042805495e-05,0.219139441848,-9.7844953537,0.592440724373
1560244289553509712,-0.00355829484761,-0.000600433563251,-1.75042805495e-05,0.258907526731,-9.66571235657,0.47114610672
1560244289557425976,-0.00143730425149,-0.000366118897555,-0.000393165650718,0.237915098667,-9.6156206131,0.491196632385
1560244289561343193,-6.76363852108e-05,-0.000373911052063,-0.00176283356268,0.255503445864,-9.63430976868,0.650368571281
1560244289565259457,-0.00181296560913,9.54246752372e-06,-0.00176283356268,0.29731798172,-9.76411533356,0.650336623192
1560244289569175482,-0.00181296560913,9.54246752372e-06,-0.000175898639382,0.299597889185,-9.74544429779,0.490719914436
1560244289573091745,-0.00438558074629,9.54246752372e-06,-1.75042805495e-05,0.320419967175,-9.82516002655,0.510738492012
1560244289577008009,-0.00530362408608,9.54246752372e-06,-1.75042805495e-05,0.258849710226,-9.88354587555,0.691888809204
1560244289580924273,-0.00530362408608,9.54246752372e-06,-1.75042805495e-05,0.238352537155,-9.80399131775,0.651934683323
1560244289584840298,-0.00385109516575,9.54246752372e-06,-0.00031030460602,0.258897006512,-9.70531845093,0.511281132698
1560244289588755608,-0.00530362408608,9.54246752372e-06,-0.00176283356268,0.198002919555,-9.66501235962,0.552222728729
1560244289592671871,-0.00478567704408,0.00227281876254,-0.00124488650772,0.216241165996,-9.68402576447,0.671523451805
1560244289596587896,-0.00355829484761,0.00350020104088,-1.75042805495e-05,0.257916897535,-9.72463703156,0.591155469418
1560244289600505114,-0.00355829484761,0.00201228059028,-1.75042805495e-05,0.239343196154,-9.74506759644,0.531925320625
1560244289604421377,-0.00355829484761,9.54246752372e-06,-1.75042805495e-05,0.219134181738,-9.8042974472,0.612508177757
1560244289608337641,-0.00530362408608,0.000978893104606,-0.00098685495299,0.198605507612,-9.84356307983,0.692959189415
1560244289612253666,-0.00509387224043,0.00175487168599,-0.00350816268474,0.199260652065,-9.82408332825,0.63302052021
1560244289616169930,-0.00355829484761,0.0029495085809,-0.00350816268474,0.199611902237,-9.72523021698,0.51274728775
1560244289620087147,-0.00530362408608,0.00131920422625,-0.00176283356268,0.179733112454,-9.76481819153,0.553327083588
1560244289624003410,-0.00530362408608,9.54246752372e-06,-0.00176283356268,0.197987154126,-9.72442150116,0.612425208092
1560244289627919674,-0.00530362408608,9.54246752372e-06,-0.00067865408734,0.219149962068,-9.74488925934,0.552305698395
1560244289631836653,-0.003656688922,9.54246752372e-06,-0.000115898357398,0.259221971035,-9.70547962189,0.49134555459
1560244289635752916,-0.00355829484761,-0.000877749450063,-1.75042805495e-05,0.239657610655,-9.78483581543,0.552124738693
1560244289639670134,-0.0034299832415,-0.00348111591302,-1.75042805495e-05,0.23868277669,-9.7843503952,0.611931562424
1560244289643586397,-0.00181296560913,-0.00236750411935,-1.75042805495e-05,0.199596121907,-9.78463840485,0.572949826717
1560244289647502422,-0.00391181712454,9.54246752372e-06,-1.75042805495e-05,0.200576230884,-9.76531982422,0.493075549603
1560244289651418686,-0.00530362408608,9.54246752372e-06,-1.75042805495e-05,0.218825012445,-9.7447271347,0.5722412467
1560244289655335903,-0.00355829484761,9.54246752372e-06,-1.75042805495e-05,0.238363057375,-9.76438522339,0.61179959774
1560244289659252167,-0.00355829484761,9.54246752372e-06,-1.75042805495e-05,0.218180373311,-9.72460174561,0.592044949532
1560244289663169384,-0.00355829484761,9.54246752372e-06,-1.75042805495e-05,0.218175113201,-9.74440383911,0.612112402916
1560244289667085409,-0.0035124004989,9.54246752372e-06,-0.00176283356268,0.238363057375,-9.76438522339,0.61179959774
1560244289671002626,-0.00181296560913,-0.00102269489342,-0.00176283356268,0.217844903469,-9.76404476166,0.65211558342
1560244289674918890,-6.76363852108e-05,-0.00375355350551,-1.75042805495e-05,0.218169853091,-9.76420688629,0.63217997551
1560244289678835154,-0.00132510488916,-0.00396897670214,-0.00127497282644,0.198951482773,-9.76451206207,0.592753529549
1560244289682751179,-0.00231058632417,-0.00123816607022,-0.00176283356268,0.217519953847,-9.7638835907,0.67205119133
1560244289686667442,-0.00355829484761,9.54246752372e-06,-0.000279735987699,0.19700178504,-9.76354217529,0.7123670578
1560244289690584660,-0.00428213429699,9.54246752372e-06,-1.75042805495e-05,0.276485383511,-9.72400856018,0.670453071594
1560244289694500923,-0.00530362408608,9.54246752372e-06,-1.75042805495e-05,0.276490628719,-9.70420455933,0.65038561821
1560244289698416948,-0.00435433152389,9.54246752372e-06,-1.75042805495e-05,0.255967199802,-9.72366714478,0.710769057274
1560244289702334166,-0.00355829484761,-0.00154538979703,-0.000207901277055,0.19701230526,-9.72393703461,0.672232031822
1560244289706250429,-0.00473408999931,9.54246752372e-06,-0.00293862863595,0.198301583529,-9.76418876648,0.632624745369
1560244289710166693,-0.00530362408608,-0.0004060042466,-0.0030926160031,0.198301583529,-9.76418876648,0.632624745369
1560244289714082718,-0.00390270628879,-0.00313670449481,-0.000361915730345,0.218489542603,-9.78417205811,0.632311880589
1560244289717999935,-0.00355829484761,-0.00173578679096,-1.75042805495e-05,0.258870720863,-9.80433273315,0.611618757248
1560244289721916199,-0.0068131606795,-0.00173578679096,-1.75042805495e-05,0.25855627656,-9.76456546783,0.59141933918
1560244289725832462,-0.00791638023842,-0.00348111591302,-0.00176283356268,0.25856679678,-9.72496032715,0.551284313202
1560244289729749680,-0.00868619657819,-0.00348111591302,-0.00176283356268,0.23901823163,-9.74490642548,0.551860928535
1560244289733665705,-0.00595537973789,-0.00348111591302,-0.00176283356268,0.198951482773,-9.76451206207,0.592753529549
1560244289737581968,-0.00147905776651,-0.00522644538432,-1.75042805495e-05,0.219139441848,-9.7844953537,0.592440724373
1560244289741497278,-6.76363852108e-05,-0.00522644538432,-1.75042805495e-05,0.239977270365,-9.80480003357,0.552256703377
1560244289745414495,-0.00237234874865,-0.00466706217018,-0.00176283356268,0.219784080982,-9.8046207428,0.572637021542
1560244289749330521,-0.00355829484761,-0.00193671065159,-0.000218428159612,0.279058665037,-9.82431602478,0.611305952072
1560244289753247738,-0.00355829484761,9.54246752372e-06,-1.75042805495e-05,0.279069185257,-9.78470993042,0.571170926094
1560244289757164001,-0.00181296560913,3.53037895462e-05,-1.75042805495e-05,0.277785181999,-9.72465515137,0.590710759163
1560244289761081219,-0.00181296560913,0.000743577783419,-1.75042805495e-05,0.217530474067,-9.72427845001,0.631916165352
1560244289764997244,-0.00181296560913,9.54246752372e-06,-1.75042805495e-05,0.197981894016,-9.74422454834,0.632492780685
1560244289768913507,-0.00181296560913,9.54246752372e-06,-1.75042805495e-05,0.197331994772,-9.74390125275,0.672363996506
1560244289772829771,-6.76363852108e-05,9.54246752372e-06,-1.75042805495e-05,0.237388193607,-9.76390075684,0.671606421471
1560244289776746035,-0.00153005633788,9.54246752372e-06,-1.75042805495e-05,0.257245957851,-9.80352497101,0.711296677589
1560244289780663013,-0.00251618306184,9.54246752372e-06,-1.75042805495e-05,0.276307106018,-9.7833366394,0.740623474121
1560244289784579277,-0.00355829484761,9.54246752372e-06,-1.75042805495e-05,0.296343117952,-9.763630867,0.710143387318
1560244289788495541,-0.00530362408608,9.54246752372e-06,-1.75042805495e-05,0.196367666125,-9.70380973816,0.692035675049
1560244289792411804,-0.00355829484761,-0.000159237050206,-0.000186283800566,0.196362406015,-9.72361373901,0.712103247643
1560244289796327829,-0.00355829484761,-0.00288992100202,-0.00176283356268,0.214768394828,-9.72290420532,0.801368713379
1560244289800244093,-0.00316388812455,-0.00134138006338,-0.00311375598799,0.235291838646,-9.70344161987,0.740985155106
1560244289804159403,-0.00181296560913,9.54246752372e-06,-0.00038366436836,0.275023132563,-9.72328090668,0.76016330719
1560244289808075666,-0.00530362408608,9.54246752372e-06,-1.75042805495e-05,0.256124436855,-9.7435503006,0.720868706703
1560244289811991692,-0.00690816380216,9.54246752372e-06,-1.75042805495e-05,0.256444126368,-9.76351451874,0.721000671387
1560244289815907955,-0.00530362408608,9.54246752372e-06,-0.000862243527607,0.236418634653,-9.7436132431,0.711345672607
1560244289819824219,-0.00521851805992,0.00183997771783,-0.00350816268474,0.256113916636,-9.78315639496,0.761003732681
1560244289823741436,-0.00248759590142,0.00350020104088,-0.00243746380997,0.237063258886,-9.7637386322,0.691542029381
1560244289827656507,-0.00181296560913,0.00144458366706,-1.75042805495e-05,0.236256182194,-9.74353218079,0.721313476562
1560244289831572771,-0.00181296560913,9.54246752372e-06,-1.75042805495e-05,0.256286889315,-9.74363136292,0.710900902748
1560244289835489035,-0.00409389980976,0.000545147423536,-1.75042805495e-05,0.316861271858,-9.76397228241,0.669827461243
1560244289839405060,-0.00530362408608,0.00327565701977,-1.75042805495e-05,0.277119487524,-9.78374004364,0.690784454346
1560244289843321323,-0.00181296560913,0.00350020104088,-1.75042805495e-05,0.237063258886,-9.7637386322,0.691542029381
1560244289847237587,-0.00181296560913,0.00350020104088,-1.75042805495e-05,0.237063258886,-9.7637386322,0.691542029381
1560244289855069876,-0.00181296560913,0.00372682643458,-1.75042805495e-05,0.237063258886,-9.7637386322,0.691542029381
1560244289858986139,-0.00181296560913,0.00524553004652,-1.75042805495e-05,0.237393498421,-9.74409770966,0.651538908482
1560244289862903357,-0.00226608630588,0.00873618852347,-1.75042805495e-05,0.257901132107,-9.78404521942,0.651358008385
1560244289866818666,-0.00499619194629,0.00729829142478,-1.75042805495e-05,0.256611853838,-9.74379253387,0.690965294838
1560244289870734692,-0.00462584524953,0.006990859285,-1.75042805495e-05,0.276794523001,-9.78357887268,0.710720062256
1560244289874650955,-0.00189507935162,0.006990859285,-1.75042805495e-05,0.237058013678,-9.78354263306,0.711609482765
1560244289878567219,-0.00181296560913,0.00524553004652,-1.75042805495e-05,0.19700178504,-9.76354217529,0.7123670578
1560244289882483482,-0.00181296560913,0.00524553004652,-1.75042805495e-05,0.196509093046,-9.7831029892,0.762338042259
1560244289886398554,-0.00181296560913,0.00524553004652,-1.75042805495e-05,0.236570596695,-9.78330039978,0.74151289463
1560244289890315771,-0.00144428586121,0.00524553004652,-0.00176283356268,0.214763134718,-9.7427072525,0.821436166763
1560244289894232988,-0.00142252782584,0.00660042149845,-0.000407942076862,0.234636664391,-9.72292137146,0.80092394352
1560244289898148298,-0.00415297957396,0.006990859285,-1.75042805495e-05,0.214443445206,-9.72274303436,0.821304321289
1560244289902064323,-0.00530362408608,0.00541081749409,-0.00159754611098,0.194900125265,-9.72288608551,0.801813364029
1560244289905980587,-0.00530362408608,0.00524553004652,-0.00176283356268,0.194244965911,-9.7423658371,0.861752152443
1560244289909897804,-0.0034976237487,0.00518485895571,-1.75042805495e-05,0.193600326777,-9.72223949432,0.88155579567
1560244289913814068,-0.00181296560913,0.00350020104088,-1.75042805495e-05,0.194564655423,-9.76233005524,0.861883997917
1560244289917730093,-0.00238609902053,0.00350020104088,-1.75042805495e-05,0.193275377154,-9.72207832336,0.90149140358
1560244289921646357,-0.00530362408608,0.00222824000456,-1.75042805495e-05,0.193920016289,-9.74220371246,0.881687760353
1560244289925563574,-0.00479116179783,0.00124240940361,0.000494957994883,0.194569915533,-9.74252700806,0.841816544533
1560244289929480791,-0.00205956664344,9.54246752372e-06,0.00172782491427,0.194244965911,-9.7423658371,0.861752152443
1560244289933396816,-0.00181296560913,0.00323148358053,-0.000755810270908,0.174376696348,-9.74234867096,0.862196803093
1560244289937313080,-0.00181296560913,0.00696925073564,-0.00176283356268,0.175026595592,-9.74267196655,0.822325706482
1560244289941229343,-0.00355829484761,0.006990859285,-0.00176283356268,0.175671234727,-9.76279735565,0.802521944046
1560244289945146561,-0.00530362408608,0.006990859285,-0.00330321124799,0.176310613751,-9.80272674561,0.802785873413
1560244289949062824,-0.00530362408608,0.00580042391939,-0.00176283356268,0.196184143424,-9.78294181824,0.78227353096
1560244289952979803,-0.00398913944072,0.00524553004652,-0.00133198895879,0.216052412987,-9.78295993805,0.78182888031
1560244289956896067,-0.00530362408608,0.00382915375698,-1.75042805495e-05,0.216057673097,-9.76315593719,0.761761307716
1560244289960813284,-0.00530362408608,0.00350020104088,-1.75042805495e-05,0.196514353156,-9.76329994202,0.742270469666
1560244289964729548,-0.00530362408608,0.00350020104088,-1.75042805495e-05,0.195864453912,-9.76297664642,0.782141685486
1560244289968645573,-0.00442115217052,0.000872399780541,-1.75042805495e-05,0.175676494837,-9.74299526215,0.782454490662
1560244289972561836,-0.00181296560913,9.54246752372e-06,-1.75042805495e-05,0.195859193802,-9.7827796936,0.80220913887
1560244289976478100,-0.000704703828369,0.00111780424482,-1.75042805495e-05,0.215732723475,-9.76299476624,0.781696915627
1560244289980394363,-6.76363852108e-05,0.00175487168599,-0.00176283356268,0.23559576273,-9.78281497955,0.801319718361
1560244289984310389,-6.76363852108e-05,0.00175487168599,-0.00176283356268,0.21507230401,-9.802277565,0.861703157425
1560244289988226652,-6.76363852108e-05,9.54246752372e-06,-1.75042805495e-05,0.233981519938,-9.74240112305,0.860862612724
1560244289992141962,-6.76363852108e-05,9.54246752372e-06,-1.75042805495e-05,0.233331620693,-9.74207782745,0.900733828545
1560244289996059179,-6.76363852108e-05,-0.0033341192799,-1.75042805495e-05,0.213143646717,-9.72209644318,0.90104663372
1560244289999975204,-6.76363852108e-05,-0.0069717746228,-1.75042805495e-05,0.192305788398,-9.70178985596,0.941230654716
1560244290003891468,-0.00109239362879,-0.00594701737068,-1.75042805495e-05,0.172757208347,-9.72173786163,0.94180727005
1560244290007807732,-0.00355829484761,-0.00147082863158,-0.000282462443516,0.172432258725,-9.72157669067,0.96174287796
1560244290011724949,-0.00230716503186,-0.00124158736257,-0.00301396329498,0.17307689786,-9.74170207977,0.941939234734
1560244290015641928,-0.00355829484761,-0.00620976254388,-0.00176283356268,0.192300528288,-9.72159385681,0.961298108101
1560244290019558191,-0.00355829484761,-0.00871710386127,-0.00028578662129,0.193270117044,-9.74188041687,0.921558856964
1560244290023475409,-0.00284028454322,-0.00553575391823,-1.75042805495e-05,0.192950427532,-9.72191619873,0.921426892281
1560244290027391672,-0.00181296560913,-7.55548028256e-05,-1.75042805495e-05,0.174046486616,-9.76198959351,0.902199983597
1560244290031308889,-0.00181296560913,9.54246752372e-06,-1.75042805495e-05,0.173082157969,-9.72189903259,0.92187166214
1560244290035224915,-0.00355829484761,-0.00191986486957,-0.00176283356268,0.173407107592,-9.72206115723,0.901936173439
1560244290039141178,-0.00355829484761,-0.00465070756875,-0.00293242498437,0.194889605045,-9.7624912262,0.841948390007
1560244290043058395,-0.00314823584425,-0.00481638632627,-0.00350816268474,0.275002092123,-9.80249214172,0.840433359146
1560244290046974659,-0.0032085638855,-0.00208551772974,-0.00211256450146,0.33332285285,-9.74249076843,0.858638882637
1560244290050890684,-0.00530362408608,-0.00411699061792,-0.000653378916525,0.314424157143,-9.76276016235,0.81934440136
1560244290054806948,-0.00530362408608,-0.00522644538432,-0.00176283356268,0.235600978136,-9.76301193237,0.781252145767
1560244290058723211,-0.000951690674192,-0.00436517032731,-0.00176283356268,0.235925942659,-9.76317310333,0.761316657066
1560244290062639475,-0.000168904134311,-0.00337984816983,-1.75042805495e-05,0.216377362609,-9.78312110901,0.7618932724
1560244290066556454,-0.00290028552082,-0.00173578679096,-1.75042805495e-05,0.255794227123,-9.76319122314,0.760871887207
1560244290070472717,-0.00355829484761,-0.00206337872214,-0.00176283356268,0.294880867004,-9.7629032135,0.799853563309
1560244290074388981,-0.00355829484761,-0.00348111591302,-0.00176283356268,0.295195281506,-9.8026714325,0.820052981377
1560244290078306198,-6.76363852108e-05,-0.00292738634358,-1.75042805495e-05,0.23559576273,-9.78281497955,0.801319718361
1560244290082223415,-6.76363852108e-05,-0.000196054553377,-1.75042805495e-05,0.195209294558,-9.78245639801,0.842080354691
1560244290086139441,-0.00181296560913,0.000975326471841,-0.000797049523133,0.194569915533,-9.74252700806,0.841816544533
1560244290090055704,-8.79134668993e-05,9.54246752372e-06,-1.75042805495e-05,0.213468596339,-9.72225761414,0.88111102581
1560244290093971968,-0.00181296560913,9.54246752372e-06,-1.75042805495e-05,0.273723334074,-9.72263431549,0.839905619621
1560244290097888231,-0.00181296560913,9.54246752372e-06,-0.00026301377255,0.233981519938,-9.74240112305,0.860862612724
1560244290101805210,-0.00181296560913,9.54246752372e-06,-0.00176283356268,0.233011901379,-9.72211360931,0.900601863861
1560244290105721474,-0.00134154682522,9.54246752372e-06,-0.00350816268474,0.233011901379,-9.72211360931,0.900601863861
1560244290109638691,-6.76363852108e-05,9.54246752372e-06,-0.0020500080589,0.212813436985,-9.74173736572,0.941049695015
1560244290113554955,-0.000765369601926,-0.000688190763008,-1.75042805495e-05,0.232037067413,-9.72162914276,0.960408687592
1560244290117472172,-0.00181296560913,-5.18164563607e-05,-1.75042805495e-05,0.192950427532,-9.72191619873,0.921426892281
1560244290121388197,-0.00181296560913,-0.00173578679096,-1.75042805495e-05,0.173726797104,-9.74202537537,0.902068018913
1560244290125304461,-0.00181296560913,-0.00348111591302,-0.000181295634996,0.173737317324,-9.70241928101,0.861932992935
1560244290129221678,-0.00181296560913,-0.00348111591302,-0.00176283356268,0.213788285851,-9.74222183228,0.881242990494
1560244290133137941,-0.00355829484761,-0.00134536913224,-0.00137241589867,0.254169464111,-9.762383461,0.860549807549
1560244290137054920,-0.00355829484761,9.54246752372e-06,-1.75042805495e-05,0.274037748575,-9.76240158081,0.860105037689
1560244290140971184,-0.00355829484761,0.00237129096755,-1.75042805495e-05,0.234301179647,-9.76236534119,0.860994577408
1560244290144887447,-0.00355829484761,0.00350020104088,-1.75042805495e-05,0.235276043415,-9.76284980774,0.801187753677
1560244290148803711,-0.00530362408608,0.00350020104088,-0.00176283356268,0.214763134718,-9.7427072525,0.821436166763
1560244290152719736,-0.00522134441358,0.00341792136289,-0.00176283356268,0.293271899223,-9.70268630981,0.839329004288
1560244290156636000,-0.00249067929285,0.000687256143475,-0.00283044904622,0.29424148798,-9.72297477722,0.799589753151
1560244290160552263,-0.00181296560913,9.54246752372e-06,-0.00350816268474,0.254504948854,-9.72293949127,0.80047917366
1560244290164469481,-0.00310649831842,9.54246752372e-06,-0.00221463006173,0.235920697451,-9.78297710419,0.781384110451
1560244290168385506,-0.00409214878798,0.00403405491004,-0.00176283356268,0.234951078892,-9.76268863678,0.821123361588
1560244290172301769,-0.00530362408608,0.00524553004652,-0.00176283356268,0.236560076475,-9.82290649414,0.781647920609
1560244290176218033,-0.00530362408608,0.00524553004652,-0.00176283356268,0.256113916636,-9.78315639496,0.761003732681
1560244290180135250,-0.00355829484761,0.00524553004652,-0.00176283356268,0.295525491238,-9.78303050995,0.780049920082
1560244290184051275,-0.00257305545259,0.00350020104088,-1.75042805495e-05,0.275976926088,-9.80297756195,0.780626535416
1560244290187968493,-6.76363852108e-05,0.00372616122053,-0.000469424690718,0.294236212969,-9.7427778244,0.819657206535
1560244290191884756,-6.76363852108e-05,0.00524553004652,-0.00350816268474,0.234956383705,-9.7428855896,0.801055908203
1560244290196086168,-0.000520048952506,0.00524553004652,-0.00305575014385,0.194889605045,-9.7624912262,0.841948390007
1560244290200002432,-0.00325083359169,0.00668339802908,-0.00176283356268,0.25385504961,-9.72261619568,0.840350389481
1560244290203919649,-0.00249124269634,0.00631258219779,-0.00108455645851,0.313124358654,-9.76211357117,0.899086833
1560244290207836151,-0.00355829484761,0.00524553004652,-1.75042805495e-05,0.272753715515,-9.70234584808,0.879644870758
1560244290211753368,-0.00530362408608,0.00615018891308,-1.75042805495e-05,0.193925276399,-9.72240161896,0.861620187759
1560244290215669632,-0.00530362408608,0.006990859285,-1.75042805495e-05,0.173092648387,-9.68229293823,0.881736636162
1560244290219585896,-0.00417338335264,0.006990859285,-1.75042805495e-05,0.213793545961,-9.72241973877,0.8611754179
