#timestamp [ns],w_RS_S_x [rad s^-1],w_RS_S_y [rad s^-1],w_RS_S_z [rad s^-1],a_RS_S_x [m s^-2],a_RS_S_y [m s^-2],a_RS_S_z [m s^-2]1560000110920638323,-0.00181296560913,-0.0331517122686,-1.75042805495e-05,0.181378871202,-9.68641471863,0.373379051685
1560000110924554825,-0.00143176174704,-0.0314063802361,-1.75042805495e-05,0.201236650348,-9.72603797913,0.413069337606
1560000110928471088,-6.76363852108e-05,-0.0314063802361,-0.00138334883032,0.181368380785,-9.72602081299,0.413514077663
1560000110932387590,-0.000672907602063,-0.0337569831675,-1.75042805495e-05,0.199947357178,-9.68578529358,0.452676683664
1560000110936303854,-0.00340277032892,-0.0364868444472,-1.75042805495e-05,0.180398792028,-9.70573234558,0.4532533288
1560000110940220356,-0.00355829484761,-0.0366423688829,-1.75042805495e-05,0.179924488068,-9.65598201752,0.432987928391
1560000110944136620,-0.00181296560913,-0.0367105266919,-1.75042805495e-05,0.179759383202,-9.66580295563,0.45298948884
1560000110948052168,-0.00286551391259,-0.0394402486571,-1.75042805495e-05,0.200267061591,-9.70574951172,0.452808588743
1560000110951968431,-0.00385026291743,-0.0421703254437,-1.75042805495e-05,0.180084317923,-9.66596412659,0.433053910732
1560000110955884933,-0.00530362408608,-0.0423468152643,-1.75042805495e-05,0.180718481541,-9.7256975174,0.453385263681
1560000110959801197,-0.00355829484761,-0.0423939962417,-1.75042805495e-05,0.181357860565,-9.76562595367,0.453649103642
1560000110963716507,-0.00355829484761,-0.0481230755716,-1.75042805495e-05,0.200592011213,-9.70591068268,0.432873010635
1560000110967633009,-0.00530362408608,-0.0506050027907,-1.75042805495e-05,0.200592011213,-9.70591068268,0.432873010635
1560000110971549273,-0.0070273509451,-0.0488812768515,-1.75042805495e-05,0.200272291899,-9.68594646454,0.432741075754
1560000110975465775,-0.00879428256303,-0.0498226891336,-1.75042805495e-05,0.239529311657,-9.6560344696,0.431653738022
1560000110979383230,-0.00684599652018,-0.051010916616,-0.00176283356268,0.240333795547,-9.68614387512,0.411916017532
1560000110983299494,-0.00530362408608,-0.0552833105781,-0.00176283356268,0.201236650348,-9.72603797913,0.413069337606
1560000110987216949,-0.00530362408608,-0.0540956631303,-1.75042805495e-05,0.201886549592,-9.72636127472,0.373198151588
1560000110991133213,-0.00530362408608,-0.055507812166,-1.75042805495e-05,0.181048691273,-9.70605564117,0.413382142782
1560000110995049715,-0.00530362408608,-0.0575863197446,-1.75042805495e-05,0.181693330407,-9.72618198395,0.393578469753
1560000110998966932,-0.00530362408608,-0.0592228040114,-0.00165398946158,0.181703820825,-9.68657588959,0.353443443775
1560000111002883434,-0.00355829484761,-0.0602077202433,-1.75042805495e-05,0.202211499214,-9.72652244568,0.353262543678
1560000111006799698,-0.00355829484761,-0.0610769800842,0.00161217877353,0.201886549592,-9.72636127472,0.373198151588
1560000111010716200,-0.00355829484761,-0.0610769800842,-1.75042805495e-05,0.222085028887,-9.70673751831,0.332750290632
1560000111014632463,-0.00321899953412,-0.062822304666,-0.0014235382407,0.162794649601,-9.74645137787,0.354283928871
1560000111018548012,-0.00313638395901,-0.062822304666,-1.75042805495e-05,0.182668179274,-9.72666740417,0.333771705627
1560000111022463322,-0.00355829484761,-0.0616387610794,-1.75042805495e-05,0.162794649601,-9.74645137787,0.354283928871
1560000111026379824,-0.00355829484761,-0.062822304666,-1.75042805495e-05,0.183307558298,-9.76659584045,0.334035545588
1560000111030296087,-0.00530362408608,-0.0663129687309,0.000941638043429,0.182662919164,-9.74646949768,0.353839218616
1560000111034212589,-0.00530362408608,-0.0680582970381,-1.75042805495e-05,0.182673439384,-9.70686340332,0.313704192638
1560000111038129807,-0.00429304743851,-0.0680582970381,-1.75042805495e-05,0.163124859333,-9.72681045532,0.314280837774
1560000111042046309,-0.00355829484761,-0.0698036253452,-1.75042805495e-05,0.162480220199,-9.70668411255,0.334084510803
1560000111045962572,-0.00232390295928,-0.0710380165749,-1.75042805495e-05,0.141642332077,-9.686378479,0.374268501997
1560000111049878120,-0.00181296560913,-0.0720222936617,-1.75042805495e-05,0.133311927319,-9.76638889313,0.355082988739
1560000111053796291,-0.00181296560913,-0.0732942819595,-1.75042805495e-05,0.141962051392,-9.70634269714,0.374400436878
1560000111057710886,-0.00251000063226,-0.0774819806756,-0.00176283356268,0.13202264905,-9.72613716125,0.394690334797
1560000111061629057,-0.00355829484761,-0.0802134301515,-0.00176283356268,0.141642332077,-9.686378479,0.374268501997
1560000111065545559,-0.00355829484761,-0.0802756026387,-0.00176283356268,0.161510616541,-9.68639659882,0.37382376194
1560000111069461823,-0.00181296560913,-0.0802756026387,-0.00176283356268,0.16118042171,-9.70603752136,0.413826882839
1560000111073378325,-0.00295945994023,-0.0791291089194,-0.00176283356268,0.141956791282,-9.72614574432,0.394467949867
1560000111077293634,-0.00355829484761,-0.0789151142599,-1.75042805495e-05,0.131713464856,-9.66656589508,0.354423344135
1560000111081211090,-0.00355829484761,-0.081645911186,-1.75042805495e-05,0.141306877136,-9.72582244873,0.434339135885
1560000111085127354,-0.00416809717455,-0.0861213895617,-1.75042805495e-05,0.140512913465,-9.65610790253,0.413941800594
1560000111089044809,-0.00530362408608,-0.0872569158673,-0.0016121275405,0.162150010467,-9.72632598877,0.374087631702
1560000111092961073,-0.00613781926828,-0.0880911106044,-0.00350816268474,0.181698590517,-9.70637893677,0.373510956764
1560000111096877575,-0.00704895332456,-0.0908213542854,-0.00343438116148,0.18105392158,-9.68625259399,0.393314629793
1560000111100793839,-0.00599092086196,-0.0924929082394,-0.000704801073615,0.161510616541,-9.68639659882,0.37382376194
1560000111104711533,-0.00530362408608,-0.0924929082394,-0.000315925147053,0.182018280029,-9.72634410858,0.373642891645
1560000111108626604,-0.00530362408608,-0.0937750986507,-0.00176283356268,0.182023540139,-9.70654010773,0.353575348854
1560000111112543106,-0.00530362408608,-0.0942382365465,-0.00228432095306,0.201891809702,-9.70655727386,0.353130638599
1560000111116459370,-0.00530362408608,-0.0942382365465,-0.00350816268474,0.202531188726,-9.74648666382,0.353394478559
1560000111120375872,-0.00530362408608,-0.097474383954,-0.00276275278652,0.201897054911,-9.68675518036,0.33306312561
1560000111124291182,-0.00530362408608,-0.099474221468,-0.00176283356268,0.222409978509,-9.70689868927,0.312814712524
1560000111128209829,-0.00530362408608,-0.099474221468,-0.00176283356268,0.202531188726,-9.74648666382,0.353394478559
1560000111132126331,-0.00530362408608,-0.101428842861,-0.00350816268474,0.202856138349,-9.74664878845,0.333458870649
1560000111136041403,-0.00530362408608,-0.102964878082,-0.00231486444121,0.202861398458,-9.72684574127,0.31339135766
1560000111139957666,-0.00530362408608,-0.10471021384,-0.00176283356268,0.223374292254,-9.74699020386,0.293142944574
1560000111143874168,-0.00388665590249,-0.106127181267,-0.00176283356268,0.242440730333,-9.70699691772,0.302402168512
1560000111147791862,-0.00247035081471,-0.106455542147,-1.75042805495e-05,0.203181087971,-9.74680995941,0.313523292542
1560000111151709080,-0.00520122159038,-0.104812616281,-1.75042805495e-05,0.222729668021,-9.72686386108,0.312946617603
1560000111155624628,-0.00442206567908,-0.102964878082,-0.00264439191088,0.202536448836,-9.72668457031,0.33332696557
1560000111159540653,-0.00181296560913,-0.104830833426,-0.00176283356268,0.222404718399,-9.72670269012,0.332882225513
1560000111163455963,-0.00291728227278,-0.106455542147,-0.00176283356268,0.222090259194,-9.68693447113,0.312682777643
1560000111167372465,-0.00355829484761,-0.106111926812,-0.00316454718949,0.241948008537,-9.72655773163,0.352373063564
1560000111171288729,-0.00488653399232,-0.103381969734,-0.00176283356268,0.26310557127,-9.76682758331,0.312321007252
1560000111175205231,-0.00530362408608,-0.103532528163,-0.00350816268474,0.22111018002,-9.70625209808,0.39255708456
1560000111179121494,-0.00530362408608,-0.10626229976,-0.00350816268474,0.222079768777,-9.72654056549,0.352817803621
1560000111183037996,-0.00276654988076,-0.106455542147,-0.00350816268474,0.241303414106,-9.70643138885,0.372176736593
1560000111186954260,-6.76363852108e-05,-0.106455542147,-0.00350816268474,0.260851949453,-9.68648529053,0.371600091457
1560000111190870762,-6.76363852108e-05,-0.104424416862,-0.00350816268474,0.260851949453,-9.68648529053,0.371600091457
1560000111194787025,-0.00206799433525,-0.099474221468,-0.00325313397563,0.30058324337,-9.70632266998,0.390778124332
1560000111198702574,-0.00355829484761,-0.0982352527536,-0.00176283356268,0.319806873798,-9.6862154007,0.410137057304
1560000111202618837,-0.00482558620696,-0.0989961838439,-0.000495542171631,0.321096152067,-9.72646808624,0.370529711246
1560000111206535339,-0.00355829484761,-0.0977288931608,-0.00322572436833,0.360182821751,-9.7261800766,0.409511446953
1560000111210451603,-0.00355829484761,-0.0952814442408,-0.00421028367223,0.3592184484,-9.68608856201,0.429183185101
1560000111214368105,-0.00355829484761,-0.0942382365465,-0.00356681680977,0.359538137913,-9.70605278015,0.429315090179
1560000111218284369,-0.00263243885362,-0.0924929082394,-0.00258230675251,0.380051076412,-9.72619819641,0.409066677094
1560000111222199917,-0.00355829484761,-0.0924929082394,-1.75042805495e-05,0.399924606085,-9.70641136169,0.388554424047
1560000111226117134,-0.00355829484761,-0.0913429208346,-1.75042805495e-05,0.420112520456,-9.72639465332,0.388241618872
1560000111230033636,-0.00530362408608,-0.0886130819882,-0.00215199593065,0.45919919014,-9.72610664368,0.427223324776
1560000111233949900,-0.00530362408608,-0.0845095809184,-0.00350816268474,0.479392379522,-9.72628688812,0.406843006611
1560000111237866402,-0.00530362408608,-0.0796622533265,-0.00114948390781,0.459204494953,-9.7063035965,0.407155811787
1560000111241782665,-0.00530362408608,-0.0753353735488,-1.75042805495e-05,0.499265938997,-9.70650100708,0.386330723763
1560000111245699167,-0.00446643777494,-0.0733652385379,-1.75042805495e-05,0.498930484056,-9.74594593048,0.446401357651
1560000111249615431,-0.00181296560913,-0.069650427225,-1.75042805495e-05,0.499580353498,-9.74626922607,0.406530171633
1560000111253530979,-0.00287356181566,-0.0652523730903,-0.0010781005136,0.498940974474,-9.70633983612,0.406266331673
1560000111257447243,-0.00385790745824,-0.062822304666,-0.00380777529537,0.538986742496,-9.76594543457,0.44564384222
1560000111261363745,-0.00401922750136,-0.0615379115081,-0.00396909533849,0.538667082787,-9.74598121643,0.445511907339
1560000111265280008,-0.00181296560913,-0.0565390234717,-0.00123918513373,0.547967076302,-9.68625736237,0.42495816946
1560000111269197464,-0.00181296560913,-0.051077845563,-1.75042805495e-05,0.549576044083,-9.74647426605,0.385482728481
1560000111273113728,-0.00355829484761,-0.0438728756153,-0.000765573962766,0.568149805069,-9.72604370117,0.444712877274
1560000111277030230,-0.0018255930956,-0.0401456567022,-0.00176283356268,0.568155050278,-9.70623970032,0.424645364285
1560000111280946493,-0.00278525180998,-0.0383877009153,-0.00176283356268,0.548601210117,-9.7459897995,0.445289522409
1560000111284863949,-0.00181296560913,-0.0381757473653,-1.75042805495e-05,0.568155050278,-9.70623970032,0.424645364285
1560000111288780451,-0.00181296560913,-0.0342477784037,-1.75042805495e-05,0.567180156708,-9.70575523376,0.48445212841
1560000111292696714,-0.00355829484761,-0.0252979823105,-0.000453711492119,0.546981692314,-9.72537899017,0.524899959564
1560000111296614170,-0.00355829484761,-0.0184142461657,-0.00318466394476,0.537058055401,-9.68576431274,0.484987318516
1560000111300530434,-0.00355829484761,-0.0132923820125,-0.00284745316458,0.567499876022,-9.72572040558,0.484584033489
1560000111304446936,-0.00520404820699,-0.00891625561946,-0.00176283356268,0.62710994482,-9.70597076416,0.463182300329
1560000111308363199,-0.00530362408608,-0.003457012103,-0.000878116929393,0.627115190029,-9.68616771698,0.443114817142
1560000111312279701,-0.00517945684651,0.000257876953531,-1.75042805495e-05,0.607561349869,-9.72591781616,0.463758975267
1560000111316195965,-0.00355829484761,0.0046090823808,-1.75042805495e-05,0.567180156708,-9.70575523376,0.48445212841
1560000111320112467,-0.00390689543177,0.00908478910763,-0.00176283356268,0.547311902046,-9.70573711395,0.484896838665
1560000111324029684,-0.00530362408608,0.0131480300983,-0.00176283356268,0.518159389496,-9.70603370667,0.445692777634
1560000111327946186,-0.00530362408608,0.0191815775698,-0.00118991916178,0.536727905273,-9.70540523529,0.524990439415
1560000111331862450,-0.0068612713533,0.0273717641328,-1.75042805495e-05,0.537377774715,-9.70572853088,0.485119223595
1560000111335778952,-0.00450698389549,0.0304767790695,-0.00176283356268,0.459518909454,-9.74607086182,0.427355259657
1560000111339694262,-0.00184852382742,0.0296801384538,-0.0017272753435,0.479067474604,-9.72612476349,0.426778614521
1560000111343610764,-0.0045783983904,0.030700242541,-1.75042805495e-05,0.458554595709,-9.7059803009,0.447026997805
1560000111347527027,-0.00678964724635,0.0351754349031,-1.75042805495e-05,0.399914085865,-9.74601745605,0.428689479828
1560000111351442575,-0.00530362408608,0.0366614572704,-1.75042805495e-05,0.379726111889,-9.72603607178,0.429002285004
1560000111355358839,-0.00530362408608,0.0371439999431,-1.75042805495e-05,0.339989572763,-9.72600078583,0.429891765118
1560000111359275341,-0.00530362408608,0.0398741082241,-1.75042805495e-05,0.299603134394,-9.72564220428,0.470652401447
1560000111363191605,-0.00530362408608,0.04015211761,-1.75042805495e-05,0.319487184286,-9.66625022888,0.410005122423
1560000111367106915,-0.00361346406563,0.04015211761,-1.75042805495e-05,0.300577998161,-9.72612667084,0.410845637321
1560000111371023417,-0.00355829484761,0.04015211761,0.00079800143369,0.280704438686,-9.74591159821,0.431357890368
1560000111374938726,-0.00530362408608,0.0420661122211,-0.000186170678711,0.220465511084,-9.68612670898,0.412360727787
1560000111378855228,-0.00415076005799,0.0436427742243,-0.00176283356268,0.221099644899,-9.74585819244,0.432692110538
1560000111382771492,-0.00316595733036,0.0436427742243,-1.75042805495e-05,0.220130071044,-9.72557163239,0.472431361675
1560000111386687994,-0.00181296560913,0.0436427742243,-1.75042805495e-05,0.220460265875,-9.70592880249,0.432428270578
1560000111390603304,-0.000683087935148,0.0466190062984,-1.75042805495e-05,0.200261801481,-9.72555351257,0.472876101732
1560000111394519806,-0.00181296560913,0.048878762871,-0.00161787433596,0.21948543191,-9.70544433594,0.492235034704
1560000111398437023,-0.00355829484761,0.048878762871,-0.000922662306498,0.199297457933,-9.68546199799,0.49254783988
1560000111402353525,-0.00347886355212,0.048878762871,-1.75042805495e-05,0.180393531919,-9.72553634644,0.473320841789
1560000111406269789,-0.000748979164903,0.048878762871,-0.00108149076026,0.180063322186,-9.74517726898,0.513323962688
1560000111410185337,-6.76363852108e-05,0.0482733251384,-1.75042805495e-05,0.180398792028,-9.70573234558,0.4532533288
1560000111414101601,-0.00135503315971,0.0441007064332,-1.75042805495e-05,0.199936851859,-9.72539138794,0.492811709642
1560000111418018103,-0.00355829484761,0.0436427742243,-1.75042805495e-05,0.21948543191,-9.70544433594,0.492235034704
1560000111421934366,-0.00506934061985,0.0421317292583,-1.75042805495e-05,0.258572071791,-9.70515632629,0.531216740608
1560000111425851822,-0.00455218342791,0.04015211761,0.000976384274888,0.23902875185,-9.70530033112,0.511725902557
1560000111429768085,-0.00529448120672,0.04015211761,-1.75042805495e-05,0.179748892784,-9.70540904999,0.493124514818
1560000111433684587,-0.00530362408608,0.04015211761,-0.000992688197504,0.160525262356,-9.72551822662,0.473765581846
1560000111437600851,-0.00355829484761,0.0399375868736,-0.00176283356268,0.140337303281,-9.705534935,0.474078387022
1560000111441517353,-0.00355829484761,0.0360079789168,-0.000563428979656,0.159560918808,-9.68542671204,0.493437319994
1560000111445433617,-0.00486525570736,0.0314254686236,-1.75042805495e-05,0.180718481541,-9.7256975174,0.453385263681
1560000111449350119,-0.00355829484761,0.0314254686236,-1.75042805495e-05,0.200267061591,-9.70574951172,0.452808588743
1560000111453266382,-0.00596591468448,0.0355784192082,-1.75042805495e-05,0.200592011213,-9.70591068268,0.432873010635
1560000111457182884,-0.00704895332456,0.0350144948933,-1.75042805495e-05,0.181677550077,-9.78559112549,0.453781038523
1560000111461098194,-0.00353187350798,0.0322849239489,0.000868370986343,0.140981942415,-9.72566127777,0.454274743795
1560000111465014696,-0.00193780988205,0.0295552942475,0.00172782491427,0.131372749805,-9.72581386566,0.434561520815
1560000111468931913,-0.00466867162367,0.0268244339631,0.000617448165976,0.140981942415,-9.72566127777,0.454274743795
1560000111472848415,-0.00704895332456,0.0237456217045,-1.75042805495e-05,0.131042540073,-9.74545574188,0.474564611912
1560000111476765871,-0.00571407487162,0.0196186154522,-1.75042805495e-05,0.160205572844,-9.70555305481,0.473633646965
1560000111480682135,-0.00472932516979,0.0192081648856,-0.00176283356268,0.160205572844,-9.70555305481,0.473633646965
1560000111484598637,-0.00355829484761,0.0176488544645,-0.000203523934602,0.160850211978,-9.72567939758,0.453830003738
1560000111488514900,-0.00355829484761,0.0174628347158,-1.75042805495e-05,0.160525262356,-9.72551822662,0.473765581846
1560000111492430210,-0.00352140760415,0.0174628347158,-1.75042805495e-05,0.140337303281,-9.705534935,0.474078387022
1560000111496346712,-0.00181296560913,0.0174628347158,-1.75042805495e-05,0.140662252903,-9.70569610596,0.454142808914
1560000111500262022,-0.00181296560913,0.0119668089737,-1.75042805495e-05,0.140007093549,-9.72517681122,0.514081478119
1560000111504179478,-0.00305841852389,0.0104815177619,-1.75042805495e-05,0.159235969186,-9.68526554108,0.513372898102
1560000111508095741,-0.00355829484761,0.0104815177619,-0.00399269923109,0.180073842406,-9.70557117462,0.473188906908
1560000111512012243,-0.00208898165357,0.00901220456791,-0.00231486563314,0.159875363111,-9.72519493103,0.513636767864
1560000111515928507,-0.00110462671979,0.00524553004652,0.000690834596986,0.159875363111,-9.72519493103,0.513636767864
1560000111519845009,-6.76363852108e-05,0.00185922858598,3.46741698827e-05,0.160200312734,-9.72535610199,0.493701159954
1560000111523761272,-0.00274561303011,-0.000923104964148,-0.000950151724858,0.140337303281,-9.705534935,0.474078387022
1560000111527677774,-0.00530362408608,-0.00348111591302,-0.00176283356268,0.160210818052,-9.68575000763,0.453566133976
1560000111531594038,-0.00414738310666,-0.00348111591302,-0.00176283356268,0.15989112854,-9.66578483582,0.453434228897
1560000111535511494,-0.00316167441137,-0.00387773640217,-0.00176283356268,0.199942111969,-9.70558834076,0.472744166851
1560000111539427996,-0.00181296560913,-0.00522644538432,-0.00176283356268,0.179754123092,-9.68560695648,0.473057001829
1560000111543344259,-0.00417890795687,-0.00522644538432,-0.000638117405336,0.180393531919,-9.72553634644,0.473320841789
1560000111547260761,-0.00530362408608,-0.00522644538432,-0.00336807759892,0.180718481541,-9.7256975174,0.453385263681
1560000111551177025,-0.00614803111468,-0.00522644538432,-0.00266375571246,0.181048691273,-9.70605564117,0.413382142782
1560000111555093527,-0.00538740788282,-0.00539401297779,-1.75042805495e-05,0.200911700726,-9.72587585449,0.433004915714
1560000111559009790,-0.00704895332456,-0.0119227995747,-1.75042805495e-05,0.200586751103,-9.72571468353,0.452940523624
1560000111562926292,-0.00674141394587,-0.0156984198838,-1.75042805495e-05,0.240003615618,-9.70578479767,0.451919138432
1560000111566842556,-0.0040114089815,-0.0131139903642,0.00127471079171,0.220774710178,-9.74569702148,0.452627718449
1560000111570757866,-0.00234405906953,-0.0104624330997,-1.75042805495e-05,0.220779955387,-9.7258939743,0.43256020546
1560000111574674368,-0.00507366091635,-0.0119777991685,-1.75042805495e-05,0.200592011213,-9.70591068268,0.432873010635
1560000111578590631,-0.00530362408608,-0.0147080209432,-1.75042805495e-05,0.220130071044,-9.72557163239,0.472431361675
1560000111582506180,-0.00530362408608,-0.0122203941196,-1.75042805495e-05,0.239039242268,-9.66569423676,0.471590846777
1560000111586421490,-0.00432644561038,-0.0112305838625,-1.75042805495e-05,0.260191559792,-9.72576808929,0.451606303453
1560000111590337992,-0.00202982360915,-0.0102455750997,-1.75042805495e-05,0.28102940321,-9.74607372284,0.41142231226
1560000111594253063,-0.00475902953837,-0.00871710386127,-1.75042805495e-05,0.259227186441,-9.68567752838,0.471278041601
1560000111598169565,-0.00530362408608,-0.0104624330997,-0.00176283356268,0.298963755369,-9.68571281433,0.470388561487
1560000111602085829,-0.00530362408608,-0.0118867881624,-0.00176283356268,0.279415160418,-9.70565986633,0.470965206623
1560000111606001377,-0.00464050193157,-0.0122077623382,-0.00109971139159,0.259227186441,-9.68567752838,0.471278041601
1560000111609918594,-0.00191000256651,-0.0105594700571,-1.75042805495e-05,0.259221971035,-9.70547962189,0.49134555459
1560000111613835096,-0.00270067446903,-0.00433873640601,-1.75042805495e-05,0.299283444881,-9.70567703247,0.470520496368
1560000111617751360,-0.00355829484761,-0.00360778904287,-0.000144177396671,0.318512320518,-9.66576576233,0.469811916351
1560000111621667862,-0.00355829484761,-0.00633815175583,-0.00176283356268,0.318832010031,-9.68573093414,0.46994382143
1560000111625584126,-0.00530362408608,-0.0069717746228,-1.75042805495e-05,0.279740124941,-9.70582103729,0.451029658318
1560000111629500628,-0.00530362408608,-0.00830731816389,-1.75042805495e-05,0.259871870279,-9.70580291748,0.451474368572
1560000111633415937,-0.00530362408608,-0.0069717746228,-1.75042805495e-05,0.299928098917,-9.72580337524,0.450716853142
1560000111637332439,-0.00374446343915,-0.00541261397586,-1.75042805495e-05,0.299933344126,-9.70599937439,0.43064931035
1560000111640117884,-0.00261057427361,-0.00363122800216,-1.75042805495e-05,0.320446252823,-9.72614479065,0.410400897264
1560000111644033909,-0.00355829484761,9.54246752372e-06,-5.43985521312e-05,0.299933344126,-9.70599937439,0.43064931035
1560000111647948742,-0.00355829484761,9.54246752372e-06,-0.00176283356268,0.260516494513,-9.72592926025,0.431670725346
1560000111651864767,-0.00530362408608,-0.000250545100679,-1.75042805495e-05,0.240973174572,-9.72607326508,0.412179857492
1560000111655779600,-0.00530362408608,-0.00173578679096,-0.00126157921135,0.260521769524,-9.70612621307,0.411603182554
1560000111659695625,-0.00355829484761,0.000492841372012,-0.00176283356268,0.241303414106,-9.70643138885,0.372176736593
1560000111663610458,-0.00502558742926,0.00322216436551,-0.00176283356268,0.300577998161,-9.72612667084,0.410845637321
1560000111667526484,-0.00530362408608,0.00524553004652,-0.00350816268474,0.2807097435,-9.7261095047,0.411290377378
1560000111671441078,-0.00530362408608,0.00524553004652,-0.00181800347401,0.320451527834,-9.70634078979,0.390333384275
1560000111675357103,-0.00530362408608,0.0043156961262,-1.75042805495e-05,0.280390024185,-9.70614433289,0.411158442497
1560000111679272890,-0.00355829484761,0.00175487168599,-1.75042805495e-05,0.241287589073,-9.76583957672,0.432379305363
1560000111683188915,-0.00355829484761,0.00290883716637,-1.75042805495e-05,0.26052698493,-9.68632316589,0.391535669565
1560000111687104702,-0.00355829484761,0.00563856984425,-0.00176283356268,0.301222622395,-9.74625205994,0.391041964293
1560000111691020727,-0.00355829484761,0.006990859285,-0.00176283356268,0.299603134394,-9.72564220428,0.470652401447
1560000111694936514,-0.00355829484761,0.00873618852347,-0.00176283356268,0.339664638042,-9.72583961487,0.449827373028
1560000111698852539,-0.00355829484761,0.0103380958069,-0.000160926239198,0.339014738798,-9.72551631927,0.489698529243
1560000111702767372,-0.00355829484761,0.0122268470004,-1.75042805495e-05,0.338695049286,-9.70555114746,0.489566594362
1560000111706682444,-0.00530362408608,0.0138933716586,-1.75042805495e-05,0.277800947428,-9.66524505615,0.530508160591
1560000111710598230,-0.00530362408608,0.0122268470004,-1.75042805495e-05,0.218846023083,-9.66551494598,0.491971164942
1560000111714514256,-0.00530362408608,0.0101787696956,-0.00176283356268,0.201231390238,-9.74584007263,0.433136850595
1560000111718430996,-0.00530362408608,0.00873618852347,-0.000474693280113,0.279415160418,-9.70565986633,0.470965206623
1560000111722347021,-0.00477580438525,0.0115371571636,-1.75042805495e-05,0.300567477942,-9.76573181152,0.4509806633
1560000111726262808,-0.00355829484761,0.0154841734502,-1.75042805495e-05,0.359857857227,-9.72601795197,0.429447025061
1560000111730178595,-0.00355829484761,0.016711201749,-0.000769136865095,0.28102940321,-9.74607372284,0.41142231226
1560000111734094381,-0.00529431793472,0.015717504546,-2.68104321438e-05,0.241303414106,-9.70643138885,0.372176736593
1560000111738010406,-0.00530362408608,0.0129967674224,-1.75042805495e-05,0.242262452841,-9.76632499695,0.372572511435
1560000111741926193,-0.00530362408608,0.012441398243,-0.000232055528529,0.202206239104,-9.74632549286,0.373330056667
1560000111745843172,-0.00530362408608,0.0151721932632,-0.00176283356268,0.280725479126,-9.66669940948,0.351087808609
1560000111749758005,-0.00355829484761,0.0152789281532,-1.75042805495e-05,0.262775361538,-9.78646945953,0.352324098349
1560000111753674984,-0.00355829484761,0.0125482284418,-1.75042805495e-05,0.222069248557,-9.76614570618,0.392952859402
1560000111757591009,-0.00355829484761,0.0111451148474,-1.75042805495e-05,0.282617360353,-9.88550376892,0.452216953039
1560000111761506796,-0.00355829484761,0.0155220837054,-1.75042805495e-05,0.259722530842,-9.65621471405,0.411273390055
1560000111765422821,-0.000925676147161,0.0174628347158,-0.000875544071116,0.222388938069,-9.78611087799,0.393084764481
1560000111769338608,-6.76363852108e-05,0.015717504546,-0.00176283356268,0.199153393507,-9.6160697937,0.432279348373
1560000111773254633,-6.76363852108e-05,0.0168286528906,-0.00176283356268,0.220774710178,-9.74569702148,0.452627718449
1560000111777170420,-0.00181296560913,0.0174628347158,-0.00141233833118,0.25809776783,-9.6554069519,0.510951399803
1560000111781085491,-0.00181296560913,0.0174628347158,-1.75042805495e-05,0.278429806232,-9.74478054047,0.570906996727
1560000111785001278,-0.00355829484761,0.0174628347158,-1.75042805495e-05,0.317526996136,-9.70488643646,0.569753706455
1560000111788917303,-0.00355829484761,0.015904207299,-1.75042805495e-05,0.23934841156,-9.72526550293,0.511857867241
1560000111792833090,-0.00181296560913,0.015717504546,-0.000815188808772,0.178768783808,-9.72472763062,0.572998762131
1560000111796748161,-0.0018493746627,0.0174628347158,-0.00179924261382,0.217386394739,-9.65488624573,0.571647584438
1560000111800663710,-0.00355829484761,0.0174628347158,-0.00350816268474,0.256957828999,-9.66474246979,0.590759694576
1560000111804578781,-0.00530362408608,0.0172034790813,-0.00350816268474,0.257277488708,-9.6847076416,0.590891599655
1560000111808494568,-0.00530362408608,0.016961605194,-0.00226406278358,0.317537486553,-9.6652803421,0.529618740082
1560000111812409639,-0.0048205096288,0.0174628347158,-1.75042805495e-05,0.259216696024,-9.72528362274,0.511413097382
1560000111816325426,-0.00355829484761,0.0174628347158,-1.75042805495e-05,0.218185633421,-9.70479774475,0.571977376938
1560000111820240498,-0.00355829484761,0.0174628347158,-1.75042805495e-05,0.21948543191,-9.70544433594,0.492235034704
1560000111824156284,-0.00355829484761,0.0191536384177,-0.00170830712246,0.239683896303,-9.68582057953,0.45178720355
1560000111828072309,-0.00355829484761,0.0182779766312,-0.000832645781367,0.220135331154,-9.70576763153,0.452363848686
1560000111831987143,-0.00547230720929,0.0155488215129,-1.75042805495e-05,0.199942111969,-9.70558834076,0.472744166851
1560000111835903168,-0.00820242014575,0.0128187094177,-1.75042805495e-05,0.219810381532,-9.70560646057,0.472299426794
1560000111839818954,-0.00800920114619,0.0122268470004,-1.75042805495e-05,0.240323275328,-9.72574996948,0.45205104351
1560000111843734980,-0.00392621365789,0.0149816671218,-1.75042805495e-05,0.241292893887,-9.74603748322,0.412311792374
1560000111847649574,-0.00355829484761,0.0180784715683,-0.00176283356268,0.181363105774,-9.74582290649,0.433581590652
1560000111851565599,-0.00515855345113,0.0176079054282,-0.00176283356268,0.161814540625,-9.76576900482,0.434158265591
1560000111855480433,-0.00530362408608,0.0166240850942,-1.75042805495e-05,0.1611751616,-9.72584056854,0.433894395828
1560000111859396458,-0.00181296560913,0.0156393652486,-0.00176283356268,0.200906440616,-9.74567890167,0.453072428703
1560000111863311291,-0.000750677733379,0.0139721762389,-0.00176283356268,0.220455020666,-9.72573280334,0.452495783567
1560000111867226124,-0.000368773346155,0.0139721762389,-0.00176283356268,0.200901180506,-9.76548194885,0.473139941692
1560000111871142149,-0.00181296560913,0.01268681775,-0.00176283356268,0.160530522466,-9.70571422577,0.453698068857
1560000111875057936,-0.00355829484761,0.0117020183502,-0.00123800489928,0.180063322186,-9.74517726898,0.513323962688
1560000111878973961,-0.00355829484761,0.008971769667,-1.75042805495e-05,0.199601382017,-9.76483535767,0.552882313728
1560000111882888556,-0.00106499078025,0.00624288444988,-1.75042805495e-05,0.178774043918,-9.70492458344,0.552931308746
1560000111886804581,-6.76363852108e-05,0.00524553004652,-1.75042805495e-05,0.197997659445,-9.6848154068,0.572290182114
1560000111890720367,-0.00103955403243,0.00524553004652,-1.75042805495e-05,0.177479475737,-9.68447494507,0.612606167793
1560000111894636393,-0.00181296560913,0.00482340646101,-1.75042805495e-05,0.198327869177,-9.66517353058,0.532287120819
1560000111898553371,-0.00300949180361,0.000558345505225,-1.75042805495e-05,0.197992414236,-9.70461845398,0.592357754707
1560000111902469158,-0.00530362408608,9.54246752372e-06,-1.75042805495e-05,0.197672709823,-9.68465423584,0.592225790024
1560000111906385183,-0.00530362408608,9.54246752372e-06,-1.75042805495e-05,0.178779274225,-9.68512153625,0.532863795757
1560000111910300970,-0.00289860084269,0.00175487168599,-0.000677198301973,0.158255875111,-9.70458316803,0.593247175217
1560000111914216995,-0.00181296560913,0.000110576797943,-0.000118538614654,0.197672709823,-9.68465423584,0.592225790024
1560000111918132782,-0.00181296560913,-0.00173578679096,-1.75042805495e-05,0.236759334803,-9.6843662262,0.63120752573
1560000111922048807,-0.00368099000402,-0.00161309163314,-1.75042805495e-05,0.256947308779,-9.70434856415,0.630894720554
1560000111925964594,-0.00530362408608,9.54246752372e-06,-0.00112541770511,0.218185633421,-9.70479774475,0.571977376938
1560000111929879665,-0.00321178885405,0.00175487168599,-0.00176283356268,0.179418683052,-9.72505092621,0.53312766552
1560000111933795452,-0.00314415711714,0.00175487168599,-0.000431642021373,0.239657610655,-9.78483581543,0.552124738693
1560000111937711477,-0.00412860491387,9.54246752372e-06,-1.75042805495e-05,0.239987790585,-9.76519393921,0.512121677399
1560000111941626310,-0.00374932017388,9.54246752372e-06,-0.00157180823163,0.199926331639,-9.76499652863,0.532946705818
1560000111945541143,-0.00102026940021,0.000802238673967,-0.00430085890027,0.239662855864,-9.76503181458,0.532057285309
1560000111949458122,-6.76363852108e-05,4.22940889244e-05,-0.00350816268474,0.319471389055,-9.7256603241,0.470207691193
1560000111953372955,-6.76363852108e-05,0.00277178921422,-0.00350816268474,0.43802061677,-9.76504898071,0.547545492649
1560000111957289696,-6.76363852108e-05,0.00524553004652,-0.00176283356268,0.398289352655,-9.74520969391,0.528367400169
1560000111961204767,-6.76363852108e-05,0.00648630578919,-0.000522057788975,0.299597889185,-9.74544429779,0.490719914436
1560000111965120554,-6.76363852108e-05,0.006990859285,-1.75042805495e-05,0.23901823163,-9.74490642548,0.551860928535
1560000111969036579,-6.76363852108e-05,0.006990859285,-1.75042805495e-05,0.257272273302,-9.70450973511,0.610959112644
1560000111972951412,0.000635613283144,0.006990859285,-1.75042805495e-05,0.315257579088,-9.68395233154,0.689235329628
1560000111976867437,0.00167769286782,0.006990859285,-1.75042805495e-05,0.314932614565,-9.68379116058,0.709170937538
1560000111980783224,-6.76363852108e-05,0.00617253893872,-1.75042805495e-05,0.275366425514,-9.65413188934,0.669991374016
1560000111984699249,-0.00181296560913,0.00873618852347,-1.75042805495e-05,0.215109094977,-9.66365623474,0.721230506897
1560000111988615036,-0.00181296560913,0.00873618852347,-1.75042805495e-05,0.17504234612,-9.68326282501,0.76212310791
1560000111992530107,-0.00355829484761,0.00834647296722,-1.75042805495e-05,0.194111406803,-9.63336753845,0.761348605156
1560000111996444941,-0.00355829484761,0.0056171062886,-1.75042805495e-05,0.214784145355,-9.66349506378,0.741166114807
1560000112000360727,-0.00530362408608,0.00463255362577,-1.75042805495e-05,0.234972119331,-9.68347740173,0.740853309631
1560000112004276514,-0.00370619030715,0.00509763460671,-1.75042805495e-05,0.176184937358,-9.6640253067,0.67228102684
1560000112008191586,-0.00355829484761,0.00266376564881,-1.75042805495e-05,0.155666783452,-9.6636838913,0.712596893311
1560000112012106419,-0.00355829484761,0.00175487168599,-1.75042805495e-05,0.157286271453,-9.6842956543,0.632986485958
1560000112016022444,-0.00461775758005,0.00175487168599,-0.00107696703949,0.138392835855,-9.68476200104,0.573624432087
1560000112019938231,-0.00530362408608,0.00145589489042,-0.00146385675621,0.139357194304,-9.72485351562,0.553952693939
1560000112023853302,-0.00658676849134,9.54246752372e-06,-1.75042805495e-05,0.140337303281,-9.705534935,0.474078387022
1560000112027769089,-0.00704895332456,9.54246752372e-06,-1.75042805495e-05,0.131372749805,-9.72581386566,0.434561520815
1560000112031685114,-0.00704895332456,-0.00149754547253,-1.75042805495e-05,0.142910599709,-9.8058423996,0.414931237698
1560000112035600901,-0.00704895332456,-0.00348111591302,-1.75042805495e-05,0.163114339113,-9.76641559601,0.354415863752
1560000112039516926,-0.00531824893622,-0.00348111591302,-1.75042805495e-05,0.163114339113,-9.76641559601,0.354415863752
1560000112043432713,-0.00355829484761,-0.00251119296026,-0.000987427322259,0.183941677213,-9.82632827759,0.354366898537
1560000112047347546,-0.00355829484761,-0.00348111591302,-0.00155435157774,0.182013019919,-9.74614620209,0.393710404634
1560000112051263332,-0.00236504969361,-0.0046743612262,-1.75042805495e-05,0.202525928617,-9.766289711,0.373461991549
1560000112055179358,-6.76363852108e-05,-0.00522644538432,-0.000449929878088,0.241612553596,-9.76600170135,0.412443697453
1560000112059095144,-6.76363852108e-05,-0.00664341413377,-0.00176283356268,0.301542311907,-9.76621627808,0.391173899174
1560000112063010216,-6.76363852108e-05,-0.0069717746228,-0.00285227255756,0.30057272315,-9.74592876434,0.430913150311
1560000112066926003,-6.76363852108e-05,-0.0069717746228,-0.00176283356268,0.259536385536,-9.74524784088,0.51154500246
1560000112070841074,-6.76363852108e-05,-0.00609279471152,-1.75042805495e-05,0.219805121422,-9.72540950775,0.492366939783
1560000112074756861,-6.76363852108e-05,-0.00359960990665,-1.75042805495e-05,0.297978401184,-9.72483348846,0.570330381393
1560000112078672886,-0.00117089492197,-0.00632970393028,-0.0011207628541,0.336745351553,-9.70458126068,0.609180152416
1560000112082587719,-0.00389994569689,-0.00871710386127,-0.00176283356268,0.355164468288,-9.6543636322,0.648276805878
1560000112086503744,-0.00530362408608,-0.00739057398092,-0.00176283356268,0.315907478333,-9.68427562714,0.649364233017
1560000112090418339,-0.00242876834536,-0.00522644538432,-0.00119807029507,0.315102994442,-9.65416717529,0.669101893902
1560000112094333172,-6.76363852108e-05,-0.00522644538432,-1.75042805495e-05,0.334651559591,-9.63422012329,0.668525218964
1560000112098249197,-0.000855876138548,-0.00601468514423,-1.75042805495e-05,0.295394539833,-9.66413116455,0.669612586498
1560000112102165222,-0.00355829484761,-0.00694450949736,-1.75042805495e-05,0.31607785821,-9.65465164185,0.609295129776
1560000112106080055,-0.00355829484761,-0.00522644538432,-1.75042805495e-05,0.256957828999,-9.66474246979,0.590759694576
1560000112109996080,-0.00555400161571,-0.00522644538432,-0.000267881816443,0.257602453232,-9.68486881256,0.570955991745
1560000112113911867,-0.00828407876289,-0.00522644538432,-0.000527708093448,0.297988921404,-9.6852273941,0.530195355415
1560000112117827892,-0.00831947715974,-0.00395592137965,-1.75042805495e-05,0.258897006512,-9.70531845093,0.511281132698
1560000112121742725,-0.00559007932888,-0.00522644538432,-1.75042805495e-05,0.240637689829,-9.7655172348,0.472250461578
1560000112125658751,-0.00600145688553,-0.00348111591302,-1.75042805495e-05,0.221429869533,-9.7262172699,0.392688989639
1560000112129574537,-0.00536646245657,-0.00348111591302,-1.75042805495e-05,0.202206239104,-9.74632549286,0.373330056667
1560000112133490562,-0.00530362408608,-0.00173578679096,-1.75042805495e-05,0.242912352085,-9.76664829254,0.332701325417
1560000112137405157,-0.00355829484761,-0.00348111591302,-1.75042805495e-05,0.243080109358,-9.74692630768,0.302666008472
1560000112141321182,-0.00355829484761,-0.00233612831262,-0.00116249198596,0.243719488382,-9.78685569763,0.302929878235
1560000112145236969,-0.00355829484761,0.000777965769462,-0.00350816268474,0.262948364019,-9.74694442749,0.302221268415
1560000112149153948,-0.00355829484761,0.0048699403012,-0.00350816268474,0.262785881758,-9.74686336517,0.312189072371
1560000112153068781,-0.00181296560913,0.00463759889237,-0.00290023149004,0.243080109358,-9.74692630768,0.302666008472
1560000112156985760,-0.0034062308406,0.00350020104088,-0.000169568291363,0.242587387562,-9.76648616791,0.352636933327
1560000112160901546,-0.00272551624665,0.00691108724844,-1.75042805495e-05,0.261816293001,-9.72657585144,0.35192835331
1560000112164817572,-6.76363852108e-05,0.00866372926051,-0.00176283356268,0.281674057245,-9.76619911194,0.391618639231
1560000112168733358,-6.76363852108e-05,0.00593422240177,-0.000706196653023,0.320771187544,-9.72630596161,0.390465319157
1560000112172648430,-6.76363852108e-05,0.00494987752844,-1.75042805495e-05,0.300258308649,-9.70616149902,0.410713732243
1560000112176564217,-6.76363852108e-05,0.00350020104088,-1.75042805495e-05,0.279740124941,-9.70582103729,0.451029658318
1560000112180480242,-0.00181296560913,0.00350020104088,-1.75042805495e-05,0.259072631598,-9.65589141846,0.451144576073
1560000112184396029,-0.00181296560913,0.00199624831296,-1.75042805495e-05,0.259227186441,-9.68567752838,0.471278041601
1560000112188311100,-0.00107031101608,0.00350020104088,-0.00176283356268,0.278450846672,-9.66556835175,0.490636974573
1560000112192226887,-6.76363852108e-05,0.00522741575599,-0.00176283356268,0.297839581966,-9.635638237,0.489994347095
1560000112196142912,-6.76363852108e-05,0.00621212786658,-0.000796235718445,0.27812063694,-9.68521022797,0.530640125275
1560000112200057507,-0.00222408131917,0.00894174637849,-1.75042805495e-05,0.258577287197,-9.68535423279,0.511149287224
1560000112203972578,-0.00530362408608,0.00929242703847,-1.75042805495e-05,0.238229513168,-9.65538883209,0.511396050453
1560000112207888365,-0.00573222887611,0.00438832049506,-0.00133422876193,0.199297457933,-9.68546199799,0.49254783988
1560000112211804390,-0.00704895332456,0.000341922696443,-0.00143045332164,0.198972508311,-9.68530082703,0.512483477592
1560000112215719223,-0.00530362408608,-0.000641672597721,-0.00176283356268,0.200916960835,-9.70607280731,0.412937402725
1560000112219635248,-0.00530362408608,-0.00173578679096,-0.00012623425638,0.200272291899,-9.68594646454,0.432741075754
1560000112223551035,-0.00617894795908,0.000884866330492,-1.75042805495e-05,0.20155633986,-9.74600219727,0.413201242685
1560000112227467060,-0.00716395716251,0.00338519719526,-0.000132508121377,0.182662919164,-9.74646949768,0.353839218616
1560000112231382847,-0.00769468188819,0.00175487168599,-0.00286243416418,0.202850878239,-9.76645088196,0.353526413441
1560000112235297918,-0.00496529874532,0.00383852633651,-0.00176283356268,0.183312818408,-9.74679279327,0.313968032598
1560000112239213705,-0.00355829484761,0.00524553004652,-0.00176283356268,0.202856138349,-9.74664878845,0.333458870649
1560000112243129730,-0.00355829484761,0.00642859033724,-0.00232510247294,0.203175827861,-9.76661300659,0.333590805531
1560000112247044325,-0.00355829484761,0.00215398483101,-0.00350816268474,0.203343555331,-9.74689102173,0.303555488586
1560000112250961542,-0.00355829484761,9.54246752372e-06,-0.000976953608851,0.202211499214,-9.72652244568,0.353262543678
1560000112254877090,-0.00181296560913,9.54246752372e-06,-1.75042805495e-05,0.202525928617,-9.766289711,0.373461991549
1560000112258793116,-0.00181296560913,9.54246752372e-06,-0.00102744218353,0.241617828608,-9.74619865417,0.392376184464
1560000112262708902,-0.00181296560913,0.000258993711875,-0.000266955534,0.221749559045,-9.74618148804,0.39282092452
1560000112266624928,-0.00181296560913,0.00175487168599,-0.00176283356268,0.220779955387,-9.7258939743,0.43256020546
1560000112270540714,-0.00181296560913,0.00350020104088,-0.00350816268474,0.220455020666,-9.72573280334,0.452495783567
1560000112274455786,-0.000355587371661,0.000585444461132,-0.00205078453232,0.239998310804,-9.72558879852,0.471986621618
1560000112278371572,0.000628533950781,-0.000686627870645,-1.75042805495e-05,0.258897006512,-9.70531845093,0.511281132698
1560000112282287598,-3.46292614151e-06,-0.00173578679096,-0.00169866010254,0.257932692766,-9.66522693634,0.53095293045
1560000112286202431,-6.76363852108e-05,-0.00256140123215,-1.75042805495e-05,0.258252352476,-9.68519210815,0.531084835529
1560000112290118456,-0.00181296560913,-0.00173578679096,-1.75042805495e-05,0.237414509058,-9.66488552094,0.571268796921
1560000112294033289,-0.00181296560913,-0.00173578679096,-1.75042805495e-05,0.217386394739,-9.65488624573,0.571647584438
1560000112297949314,-0.00181296560913,-0.00173578679096,-1.75042805495e-05,0.237409234047,-9.68468952179,0.591336369514
1560000112301863909,-0.00317904901391,-0.00173578679096,-1.75042805495e-05,0.257772833109,-9.65524482727,0.530886948109
1560000112305779934,-0.00416345766256,-0.00234094956555,-1.75042805495e-05,0.237409234047,-9.68468952179,0.591336369514
1560000112309694767,-0.00530362408608,-0.00507083192643,-1.75042805495e-05,0.238703817129,-9.70513820648,0.531661510468
1560000112313609838,-0.00438641992874,-0.00182486579649,-0.00176283356268,0.238709032536,-9.68533611298,0.511593937874
1560000112317525625,-0.00530362408608,7.63761926456e-05,-0.00176283356268,0.239353716373,-9.70546150208,0.491790294647
1560000112321440697,-0.00530362408608,0.000703317871287,-0.00176283356268,0.219155222178,-9.72508621216,0.532238125801
1560000112325355530,-0.00559362633927,-0.000280459788993,-0.000307506540995,0.219810381532,-9.70560646057,0.472299426794
1560000112329271555,-0.0083237850078,-0.00301061838917,-0.00176283356268,0.240642994642,-9.74571418762,0.452182978392
1560000112333186388,-0.0100264652347,-0.00399426254828,-1.75042805495e-05,0.220769450068,-9.76550006866,0.472695201635
1560000112337102413,-0.0057983947641,-0.00522644538432,-1.75042805495e-05,0.240642994642,-9.74571418762,0.452182978392
1560000112341017962,-0.00530362408608,-0.00448960940078,-1.75042805495e-05,0.221424609423,-9.74602031708,0.412756502628
1560000112344932795,-0.00530362408608,-0.00348111591302,-1.75042805495e-05,0.20155633986,-9.74600219727,0.413201242685
1560000112348848820,-0.00530362408608,-0.00173578679096,-0.000977618466437,0.222063988447,-9.78594970703,0.413020372391
1560000112352764845,-0.00335879083438,-0.00173578679096,-0.00021700829877,0.220774710178,-9.74569702148,0.452627718449
1560000112356680632,-0.00181296560913,-0.00173578679096,-0.00176283356268,0.260516494513,-9.72592926025,0.431670725346
1560000112360595465,-0.000490756765777,-0.00173578679096,-0.001339713168,0.280059844255,-9.72578620911,0.451161563396
1560000112364511490,-0.00322016213105,-0.00173578679096,-0.00142470083766,0.219810381532,-9.70560646057,0.472299426794
1560000112368427515,-0.00355829484761,9.54246752372e-06,-1.75042805495e-05,0.259221971035,-9.70547962189,0.49134555459
1560000112372342348,-0.00192734804022,-0.00162140435856,-1.75042805495e-05,0.238709032536,-9.68533611298,0.511593937874
1560000112376258373,-6.76363852108e-05,-0.00173578679096,-1.75042805495e-05,0.238059133291,-9.68501281738,0.551465153694
1560000112380174160,-0.000177155816318,-0.00359063535965,-1.75042805495e-05,0.27812063694,-9.68521022797,0.530640125275
1560000112384088755,-0.00181296560913,-0.00522644538432,-1.75042805495e-05,0.238053917885,-9.70481491089,0.571532666683
1560000112388004780,-0.00181296560913,-0.00489393841881,-1.75042805495e-05,0.257266998291,-9.72431373596,0.631026625633
1560000112391920805,-0.000495576183964,-0.00348111591302,-1.75042805495e-05,0.23692971468,-9.65474224091,0.591138482094
1560000112395835638,-6.76363852108e-05,-0.00348111591302,-1.75042805495e-05,0.236764609814,-9.66456222534,0.611140012741
1560000112399751425,-6.76363852108e-05,-0.00194086508184,-1.75042805495e-05,0.256947308779,-9.70434856415,0.630894720554
1560000112403665543,-0.00259156684355,-0.00095718554762,-1.75042805495e-05,0.257277488708,-9.6847076416,0.590891599655
1560000112407581329,-0.00355829484761,-8.57182563512e-06,-1.75042805495e-05,0.257277488708,-9.6847076416,0.590891599655
1560000112411496401,-0.00355829484761,-0.00273748572789,-1.75042805495e-05,0.257597208023,-9.70467185974,0.591023564339
1560000112415412188,-0.00530362408608,-0.00323997354294,-1.75042805495e-05,0.257927387953,-9.68503093719,0.551020383835
1560000112419327259,-0.00530362408608,-0.000510965162738,-1.75042805495e-05,0.218500062823,-9.74456596375,0.59217685461
1560000112423242807,-0.00355829484761,9.54246752372e-06,-1.75042805495e-05,0.258252352476,-9.68519210815,0.531084835529
1560000112427158833,-0.00355829484761,9.54246752372e-06,-1.75042805495e-05,0.219160482287,-9.70528316498,0.512170672417
1560000112431073666,-0.00530362408608,9.54246752372e-06,-1.75042805495e-05,0.2194801718,-9.72524833679,0.512302517891
1560000112434989691,-0.00530362408608,9.54246752372e-06,-1.75042805495e-05,0.239353716373,-9.70546150208,0.491790294647
1560000112438905478,-0.00530362408608,9.54246752372e-06,-0.000928739994529,0.220130071044,-9.72557163239,0.472431361675
1560000112442821503,-0.00355829484761,9.54246752372e-06,-0.00176283356268,0.239987790585,-9.76519393921,0.512121677399
1560000112446737289,-0.00469370558878,9.54246752372e-06,-0.00176283356268,0.220130071044,-9.72557163239,0.472431361675
1560000112450653315,-0.00530362408608,9.54246752372e-06,-1.75042805495e-05,0.240637689829,-9.7655172348,0.472250461578
1560000112454569101,-0.00394435506264,0.00136881147538,-1.75042805495e-05,0.23934841156,-9.72526550293,0.511857867241
1560000112458484173,-0.00355829484761,0.00290213928794,-0.00236089523584,0.199617162347,-9.70542621613,0.492679774761
1560000112462399960,-0.00355829484761,0.000172741182926,-0.00192603226907,0.199931591749,-9.74519443512,0.512879252434
1560000112466315985,-0.00355829484761,-0.00255759722229,-1.75042805495e-05,0.23934841156,-9.72526550293,0.511857867241
1560000112470231771,-0.00530362408608,-0.00354243977685,-1.75042805495e-05,0.23934841156,-9.72526550293,0.511857867241
1560000112474147797,-0.00425755675567,-0.00522644538432,-1.75042805495e-05,0.2194801718,-9.72524833679,0.512302517891
1560000112478062391,-0.00181296560913,-0.00494209409458,-0.00176283356268,0.218825012445,-9.7447271347,0.5722412467
1560000112481978416,-0.00181296560913,-0.00348111591302,-0.000493775674132,0.2194801718,-9.72524833679,0.512302517891
1560000112485894203,-0.00406648310628,-0.00122759852646,-1.75042805495e-05,0.19863705337,-9.72474479675,0.572554111481
1560000112489810228,-0.00530362408608,9.54246752372e-06,-1.75042805495e-05,0.218185633421,-9.70479774475,0.571977376938
1560000112493727207,-0.00457077865613,-0.00246863217203,-1.75042805495e-05,0.238059133291,-9.68501281738,0.551465153694
1560000112497642040,-0.00184155032169,-0.00348111591302,-1.75042805495e-05,0.217535734177,-9.70447444916,0.611848592758
1560000112501557827,-0.00451455344007,-0.000779528187536,-1.75042805495e-05,0.238053917885,-9.70481491089,0.571532666683
1560000112505473852,-0.00530362408608,9.54246752372e-06,-1.75042805495e-05,0.218196123838,-9.66519165039,0.53184235096
1560000112509389877,-0.00412350790841,9.54246752372e-06,-1.75042805495e-05,0.199292212725,-9.70526504517,0.512615382671
1560000112513305664,-0.00181296560913,-0.00215541700719,-1.75042805495e-05,0.219160482287,-9.70528316498,0.512170672417
1560000112517220736,-0.00321681065727,-0.00348111591302,-1.75042805495e-05,0.218835532665,-9.70512104034,0.532106220722
1560000112521136522,-0.00704895332456,-0.00109312984026,-0.00240549046315,0.239023476839,-9.7251033783,0.531793415546
1560000112525052547,-0.00704895332456,9.54246752372e-06,-0.00188054149443,0.260186284781,-9.74557113647,0.471673816442
1560000112528967381,-0.00530362408608,-0.000856472539234,-1.75042805495e-05,0.239998310804,-9.72558879852,0.471986621618
1560000112532883406,-0.00530362408608,-0.00348111591302,-1.75042805495e-05,0.220779955387,-9.7258939743,0.43256020546
1560000112536798000,-0.00530362408608,-0.00348111591302,-1.75042805495e-05,0.220455020666,-9.72573280334,0.452495783567
1560000112540713787,-0.00497527331012,-0.00348111591302,-0.00176283356268,0.221419334412,-9.76582241058,0.43282404542
1560000112544628859,-0.00487086486553,-0.00216854598264,-0.000450263511922,0.22110491991,-9.72605609894,0.412624597549
1560000112548544645,-0.00530362408608,-0.00173578679096,-1.75042805495e-05,0.221429869533,-9.7262172699,0.392688989639
1560000112552459717,-0.00530362408608,-0.00480668982368,-1.75042805495e-05,0.240323275328,-9.72574996948,0.45205104351
1560000112556375504,-0.00530362408608,-0.00600139026951,-1.75042805495e-05,0.240328550339,-9.70594596863,0.431983530521
1560000112560291529,-0.00530362408608,-0.0069578094395,-1.75042805495e-05,0.221749559045,-9.74618148804,0.39282092452
1560000112564207315,-0.00430482161568,-0.0032288403769,-1.75042805495e-05,0.220455020666,-9.72573280334,0.452495783567
1560000112568123341,-0.00181296560913,-0.00022894066761,-1.75042805495e-05,0.220785230398,-9.70609092712,0.412492662668
1560000112572038174,-0.00181296560913,-0.00418071133693,-1.75042805495e-05,0.199297457933,-9.68546199799,0.49254783988
1560000112575954199,-0.000529102861951,-0.00917857034186,-1.75042805495e-05,0.219815611839,-9.68580341339,0.452231943607
1560000112579868793,-0.00325820692764,-0.0104624330997,-1.75042805495e-05,0.199942111969,-9.70558834076,0.472744166851
1560000112583784819,-0.00530362408608,-0.00977780091884,-0.00176283356268,0.218835532665,-9.70512104034,0.532106220722
1560000112587700605,-0.00530362408608,-0.00704788992403,-0.00176283356268,0.199292212725,-9.70526504517,0.512615382671
1560000112591616631,-0.00264971905971,-0.0087889261986,-1.75042805495e-05,0.218840762973,-9.68531894684,0.512038707733
1560000112595531464,-6.76363852108e-05,-0.0139530915767,-1.75042805495e-05,0.198647558689,-9.68513870239,0.532419085503
1560000112599447489,-6.76363852108e-05,-0.0128211117328,-1.75042805495e-05,0.218840762973,-9.68531894684,0.512038707733
1560000112603363276,-0.00355829484761,-0.00797423313147,-0.00176283356268,0.238389343023,-9.66537094116,0.5114620924
1560000112607279301,-0.00491394556986,-0.00115949311162,-0.00176283356268,0.219155222178,-9.72508621216,0.532238125801
1560000112611195087,-0.00530362408608,9.54246752372e-06,-0.00235796011533,0.239998310804,-9.72558879852,0.471986621618
1560000112615111113,-0.00530362408608,-0.00315060415923,-0.00350816268474,0.239678651094,-9.70562362671,0.471854686737
1560000112619027138,-0.00530362408608,-0.00768390006294,-0.000943681982652,0.239673376083,-9.72542667389,0.491922229528
1560000112622942924,-0.00530362408608,-0.0122077623382,-1.75042805495e-05,0.259546905756,-9.70564174652,0.471409976482
1560000112626858950,-0.00530362408608,-0.0111645212368,-1.75042805495e-05,0.259866595268,-9.72560691833,0.471541881561
1560000112630774736,-0.00502126710033,-0.00899946084702,-1.75042805495e-05,0.240648210049,-9.72591114044,0.4321154356
1560000112634689808,-0.00482481431487,-0.0104624330997,-0.00128402377949,0.280379503965,-9.74575042725,0.451293498278
1560000112638606548,-0.00557441402656,-0.00871710386127,-0.00176283356268,0.280379503965,-9.74575042725,0.451293498278
1560000112644698858,-0.00704895332456,-0.00871710386127,-0.000272626729555,0.260511249304,-9.74573230743,0.451738238335
1560000112648617029,-0.00603312920557,-0.0069717746228,-0.00103332842495,0.2807097435,-9.7261095047,0.411290377378
1560000112652534723,-0.00533501602239,-0.00525783732063,-0.00173144162559,0.2807097435,-9.7261095047,0.411290377378
1560000112656452656,-0.00355829484761,-0.0069717746228,-0.000809280396819,0.261166393757,-9.72625255585,0.391799509525
1560000112660370350,-0.00355829484761,-0.00522644538432,-1.75042805495e-05,0.240648210049,-9.72591114044,0.4321154356
1560000112664287329,-0.00473485985603,-0.00522644538432,-0.0011940693184,0.280059844255,-9.72578620911,0.451161563396
1560000112668205261,-0.0031421869383,-0.00522644538432,-0.00176283356268,0.28102940321,-9.74607372284,0.41142231226
1560000112672122955,-0.00181296560913,-0.00382626215139,-0.000362650481512,0.28102940321,-9.74607372284,0.41142231226
1560000112676041126,-0.00181296560913,-0.00173578679096,-1.75042805495e-05,0.279409945011,-9.72546291351,0.491032749414
1560000112679957867,-0.000189098273495,-0.00173578679096,-1.75042805495e-05,0.258257627487,-9.66538906097,0.51101732254
1560000112683875799,-6.76363852108e-05,-0.00259873349624,-1.75042805495e-05,0.258577287197,-9.68535423279,0.511149287224
1560000112687793732,-0.00181296560913,-0.00337847858686,-1.75042805495e-05,0.259546905756,-9.70564174652,0.471409976482
1560000112691711426,-0.00181296560913,-0.000648840132351,-1.75042805495e-05,0.278440326452,-9.70517444611,0.530771970749
1560000112695628405,-6.76363852108e-05,9.54246752372e-06,-1.75042805495e-05,0.278765261173,-9.70533657074,0.510836422443
1560000112699545145,-6.76363852108e-05,9.54246752372e-06,-1.75042805495e-05,0.278440326452,-9.70517444611,0.530771970749
1560000112703463078,-0.00181296560913,0.000558705855743,-0.00176283356268,0.277800947428,-9.66524505615,0.530508160591
1560000112707380056,-0.00181296560913,0.00175487168599,-0.00176283356268,0.278440326452,-9.70517444611,0.530771970749
1560000112711297750,-0.00355829484761,9.54246752372e-06,-0.000789217488481,0.258897006512,-9.70531845093,0.511281132698
1560000112715215921,-0.00530362408608,9.54246752372e-06,-1.75042805495e-05,0.278770536184,-9.68553352356,0.490768879652
1560000112719133854,-0.00430745601858,0.00100571052361,-1.75042805495e-05,0.278765261173,-9.70533657074,0.510836422443
1560000112723051548,-0.00181296560913,0.00548107589217,-1.75042805495e-05,0.238703817129,-9.70513820648,0.531661510468
1560000112726969481,-0.000592696801296,0.006990859285,-1.75042805495e-05,0.260191559792,-9.72576808929,0.451606303453
1560000112730886221,-0.00181296560913,0.00478694092343,-1.75042805495e-05,0.25986135006,-9.74540901184,0.49160939455
1560000112734804153,-0.00181296560913,0.00205681085553,-1.75042805495e-05,0.239668130875,-9.74522972107,0.511989712715
1560000112738722086,-0.00249561000631,0.0024375161287,-1.75042805495e-05,0.280054539442,-9.74558925629,0.471229076385
1560000112742639780,-0.00355829484761,0.005167457657,-1.75042805495e-05,0.240637689829,-9.7655172348,0.472250461578
1560000112746557951,-0.00355829484761,0.00615241014167,-1.75042805495e-05,0.280704438686,-9.74591159821,0.431357890368
1560000112750475883,-0.00370419559271,0.00888208926857,-0.00161693281393,0.240323275328,-9.72574996948,0.45205104351
1560000112754393578,-0.00530362408608,0.00935101431124,-1.75042805495e-05,0.220455020666,-9.72573280334,0.452495783567
1560000112758310556,-0.00530362408608,0.006990859285,-1.75042805495e-05,0.260196805,-9.70596408844,0.431538790464
1560000112762229204,-0.00394932082185,0.00834516254923,-0.00137180757866,0.240648210049,-9.72591114044,0.4321154356
1560000112766147137,-0.00355829484761,0.00639717824262,-0.00176283356268,0.240318030119,-9.74555301666,0.472118556499
1560000112770065069,-0.00355829484761,0.00366687403305,-0.00176283356268,0.240008831024,-9.68598175049,0.431851625443
1560000112773983002,-0.00274068539172,0.00257248119641,-1.75042805495e-05,0.200581490993,-9.74551773071,0.473008036613
1560000112777900934,-0.00187010783098,0.00350020104088,-1.75042805495e-05,0.240642994642,-9.74571418762,0.452182978392
1560000112781818867,-0.00251638157034,0.00454211417915,-1.75042805495e-05,0.25890225172,-9.68551540375,0.491213649511
1560000112785736561,-0.00181296560913,0.00524553004652,-1.75042805495e-05,0.239023476839,-9.7251033783,0.531793415546
1560000112789655447,-0.00181296560913,0.00524553004652,-0.00128375285072,0.198647558689,-9.68513870239,0.532419085503
1560000112793573380,-0.00305298442967,0.00524553004652,-0.00176283356268,0.219165712595,-9.6854801178,0.492103099823
1560000112797491312,-0.0033030753212,0.00375542053324,-0.000272723813345,0.238703817129,-9.70513820648,0.531661510468
1560000112801410198,-0.00355829484761,0.00350020104088,-1.75042805495e-05,0.199292212725,-9.70526504517,0.512615382671
1560000112805329084,-0.00355829484761,0.00350020104088,-1.75042805495e-05,0.238384097815,-9.68517398834,0.531529545784
1560000112809246778,-0.00355829484761,0.00524553004652,-1.75042805495e-05,0.198972508311,-9.68530082703,0.512483477592
1560000112813165665,-0.00336387064457,0.00524553004652,-1.75042805495e-05,0.219165712595,-9.6854801178,0.492103099823
1560000112817084789,-0.000632746311953,0.00642574935354,-1.75042805495e-05,0.23902875185,-9.70530033112,0.511725902557
1560000112821002483,-0.00181296560913,0.006990859285,-0.00043706081845,0.23902875185,-9.70530033112,0.511725902557
1560000112824921370,-0.00321797003537,0.006990859285,-0.00176283356268,0.239683896303,-9.68582057953,0.45178720355
1560000112828840256,-0.00530362408608,0.00460080958367,-0.00350816268474,0.219810381532,-9.70560646057,0.472299426794
1560000112832759380,-0.00530362408608,0.00186986460121,-0.00187782646256,0.219805121422,-9.72540950775,0.492366939783
1560000112836677074,-0.00442788506226,0.000885281481308,-1.75042805495e-05,0.219490662217,-9.68564224243,0.472167521715
1560000112840595961,-0.00541292558534,9.54246752372e-06,-1.75042805495e-05,0.219810381532,-9.70560646057,0.472299426794
1560000112844513893,-0.00595486161639,9.54246752372e-06,-1.75042805495e-05,0.240637689829,-9.7655172348,0.472250461578
1560000112848432541,-0.00322431633384,0.00034352097746,-1.75042805495e-05,0.220135331154,-9.70576763153,0.452363848686
1560000112852350473,-0.000494335534573,0.00175487168599,-1.75042805495e-05,0.240323275328,-9.72574996948,0.45205104351
1560000112856268644,-0.00237097875404,0.00231288486811,-1.75042805495e-05,0.220130071044,-9.72557163239,0.472431361675
1560000112860186338,-0.00510082115382,0.00195767463178,-1.75042805495e-05,0.218835532665,-9.70512104034,0.532106220722
1560000112864105225,-0.00355829484761,9.54246752372e-06,-1.75042805495e-05,0.220444500446,-9.76533794403,0.492630809546
1560000112868023157,-0.00181296560913,9.54246752372e-06,-3.97631050368e-05,0.219805121422,-9.72540950775,0.492366939783
1560000112871940851,-0.000806594241675,9.54246752372e-06,-0.00176283356268,0.239673376083,-9.72542667389,0.491922229528
1560000112875858784,-0.000313623598852,-0.00173578679096,-1.75042805495e-05,0.220130071044,-9.72557163239,0.472431361675
1560000112879776955,-0.0042746726495,-0.000504933256665,-1.75042805495e-05,0.218190863729,-9.68499565125,0.551909923553
1560000112883694649,-0.00530362408608,9.54246752372e-06,-1.75042805495e-05,0.219160482287,-9.70528316498,0.512170672417
1560000112887613535,-0.00239319137644,-0.00144567390398,-1.75042805495e-05,0.218835532665,-9.70512104034,0.532106220722
1560000112891531467,-6.76363852108e-05,-0.00348111591302,-1.75042805495e-05,0.23773419857,-9.68485069275,0.571400761604
1560000112895449162,-6.76363852108e-05,-0.00180221827318,-1.75042805495e-05,0.218840762973,-9.68531894684,0.512038707733
1560000112899368048,-0.00447755403827,9.54246752372e-06,-0.00084357434902,0.23902875185,-9.70530033112,0.511725902557
1560000112903287172,-0.00704895332456,0.00159569182721,-1.75042805495e-05,0.237739443779,-9.66504764557,0.551333248615
1560000112907205820,-0.00590455708931,9.54246752372e-06,-1.75042805495e-05,0.238709032536,-9.68533611298,0.511593937874
1560000112911123753,-0.00491957507011,-0.000374506552852,-1.75042805495e-05,0.23934841156,-9.72526550293,0.511857867241
1560000112915041685,-0.00355829484761,-0.00310407970176,-0.00138579731684,0.259221971035,-9.70547962189,0.49134555459
1560000112918960333,-0.00355829484761,-0.0046181463697,-0.00176283356268,0.239023476839,-9.7251033783,0.531793415546
1560000112922878504,-0.00355829484761,-0.000294223473404,-0.000169387259007,0.239353716373,-9.70546150208,0.491790294647
1560000112926797390,-0.00439126271545,0.00342080736611,-1.75042805495e-05,0.239353716373,-9.70546150208,0.491790294647
1560000112930716276,-0.00530362408608,0.00517228243713,-0.00168958594168,0.2194801718,-9.72524833679,0.512302517891
1560000112934633970,-0.00530362408608,0.00244250124445,-1.75042805495e-05,0.239993095398,-9.74539089203,0.492054134607
1560000112938551903,-0.00326145432642,9.54246752372e-06,-1.75042805495e-05,0.239678651094,-9.70562362671,0.471854686737
1560000112942469835,-0.0030945459056,9.54246752372e-06,-1.75042805495e-05,0.219805121422,-9.72540950775,0.492366939783
1560000112946388721,-0.00582524481178,9.54246752372e-06,-0.000539125019295,0.239993095398,-9.74539089203,0.492054134607
1560000112950306654,-0.0055426350063,9.54246752372e-06,-0.000256515206749,0.240648210049,-9.72591114044,0.4321154356
1560000112954224348,-0.00455795139425,9.54246752372e-06,-1.75042805495e-05,0.239678651094,-9.70562362671,0.471854686737
1560000112958143234,-0.00182758350023,9.54246752372e-06,-1.75042805495e-05,0.239033997059,-9.68549728394,0.491658359766
1560000112962061167,-0.00181296560913,-0.00270594949844,-0.000987667077004,0.238703817129,-9.70513820648,0.531661510468
1560000112965979099,-0.00355829484761,-0.00348111591302,-0.00176283356268,0.239353716373,-9.70546150208,0.491790294647
1560000112969897032,-0.00355829484761,-0.00348111591302,-0.000568887873683,0.239998310804,-9.72558879852,0.471986621618
1560000112973814964,-0.0022465152174,9.54246752372e-06,-0.00219638314203,0.239673376083,-9.72542667389,0.491922229528
1560000112977732658,-0.00497605262067,0.00142730022434,-0.00350816268474,0.239998310804,-9.72558879852,0.471986621618
1560000112981651545,-0.00530362408608,0.00218439393225,-0.00110493001008,0.238378852606,-9.70497703552,0.551597118378
1560000112985570669,-0.00530362408608,9.54246752372e-06,-1.75042805495e-05,0.2194801718,-9.72524833679,0.512302517891
1560000112989488363,-0.00618642435166,-0.00348111591302,-1.75042805495e-05,0.238709032536,-9.68533611298,0.511593937874
1560000112993406296,-0.00867235718651,9.54246752372e-06,-1.75042805495e-05,0.239678651094,-9.70562362671,0.471854686737
1560000112997324228,-0.00594223249284,0.00111626328655,-1.75042805495e-05,0.200256541371,-9.74535560608,0.492943614721
1560000113001242876,-0.00355829484761,9.54246752372e-06,-1.75042805495e-05,0.23934841156,-9.72526550293,0.511857867241
1560000113005160809,-0.00355829484761,-0.0013217115343,-1.75042805495e-05,0.23902875185,-9.70530033112,0.511725902557
1560000113009078741,-0.00473275448755,-0.00348111591302,-1.75042805495e-05,0.218515813351,-9.6851568222,0.531974315643
1560000113012996674,-0.00355829484761,-0.000369666613767,-0.00157322901206,0.238709032536,-9.68533611298,0.511593937874
1560000113016914606,-0.00435289448367,9.54246752372e-06,-0.000968233906741,0.239668130875,-9.74522972107,0.511989712715
1560000113020832539,-0.00530362408608,-2.46769562237e-05,-1.75042805495e-05,0.219155222178,-9.72508621216,0.532238125801
1560000113024749279,-0.00530362408608,-0.000717733287702,-1.75042805495e-05,0.21948543191,-9.70544433594,0.492235034704
1560000113028667212,-0.00530362408608,9.54246752372e-06,-1.75042805495e-05,0.219810381532,-9.70560646057,0.472299426794
1560000113032584906,-0.00530362408608,-0.00123227863079,-0.00125932539569,0.239023476839,-9.7251033783,0.531793415546
1560000113036502838,-0.00530362408608,-0.00221663264365,-0.00128198766589,0.219805121422,-9.72540950775,0.492366939783
1560000113040421009,-0.00530362408608,-0.00348111591302,-1.75042805495e-05,0.21948543191,-9.70544433594,0.492235034704
1560000113044339657,-0.00530362408608,-0.00277537317921,-1.75042805495e-05,0.239353716373,-9.70546150208,0.491790294647
1560000113048257589,-0.00530362408608,-4.55959386948e-05,-1.75042805495e-05,0.220135331154,-9.70576763153,0.452363848686
1560000113052174568,-0.00530362408608,9.54246752372e-06,-1.75042805495e-05,0.199611902237,-9.72523021698,0.51274728775
1560000113056092262,-0.00355829484761,9.54246752372e-06,-1.75042805495e-05,0.220449760556,-9.74553585052,0.472563266754
1560000113060010195,-0.00240548382513,-0.00114326856817,-1.75042805495e-05,0.220449760556,-9.74553585052,0.472563266754
1560000113063928127,-0.00355829484761,-0.00348111591302,-1.75042805495e-05,0.219799861312,-9.74521255493,0.512434482574
1560000113067847013,-0.00355829484761,-0.00348111591302,-1.75042805495e-05,0.239678651094,-9.70562362671,0.471854686737
1560000113071764946,-0.00181296560913,-0.00348111591302,-0.00237977039475,0.199947357178,-9.68578529358,0.452676683664
1560000113075682878,-0.00181296560913,-0.00348111591302,-0.00350816268474,0.200586751103,-9.72571468353,0.452940523624
1560000113079601526,-0.00265423795627,-0.00432238837238,-0.00266689039372,0.239033997059,-9.68549728394,0.491658359766
1560000113083519459,-0.00363902523594,-0.00348111591302,-1.75042805495e-05,0.220130071044,-9.72557163239,0.472431361675
1560000113087437391,-0.00423811436226,-0.00241560626027,-1.75042805495e-05,0.23934841156,-9.72526550293,0.511857867241
1560000113091355324,-0.00181296560913,-0.00378585090188,-1.75042805495e-05,0.258897006512,-9.70531845093,0.511281132698
1560000113095274210,-0.00310315038997,-0.00522644538432,-1.75042805495e-05,0.219160482287,-9.70528316498,0.512170672417
1560000113099192142,-0.00530362408608,-0.00120635563575,-0.00176283356268,0.2194801718,-9.72524833679,0.512302517891
1560000113103109837,-0.00378980927864,-0.00150427235727,-0.00176283356268,0.218840762973,-9.68531894684,0.512038707733
1560000113107027769,-0.00355829484761,-0.00423459615438,-0.00176283356268,0.239993095398,-9.74539089203,0.492054134607
1560000113110944510,-0.00182143622455,-0.00522644538432,-2.59748961762e-05,0.218830272555,-9.7249250412,0.552173733711
1560000113114862442,-0.00278936632492,-0.00348111591302,-0.000993905020762,0.23934841156,-9.72526550293,0.511857867241
1560000113118780613,-0.00334203874454,-0.00369737204494,-0.0015465774542,0.259216696024,-9.72528362274,0.511413097382
1560000113122698307,-0.00181296560913,-0.00882705884464,-1.75042805495e-05,0.259227186441,-9.68567752838,0.471278041601
1560000113126616240,-0.00225282820111,-0.0117678997462,-1.75042805495e-05,0.23935893178,-9.68565940857,0.471722781658
1560000113130534172,-0.00355829484761,-0.0104624330997,-0.00144214751672,0.240637689829,-9.7655172348,0.472250461578
1560000113134452820,-0.00355829484761,-0.00871710386127,-0.00176283356268,0.239673376083,-9.72542667389,0.491922229528
1560000113138370752,-0.00355829484761,-0.00706795339297,-0.000113683053128,0.259866595268,-9.72560691833,0.471541881561
1560000113142288923,-0.00444682913768,-0.00608324033273,-1.75042805495e-05,0.240637689829,-9.7655172348,0.472250461578
1560000113146206617,-0.00530362408608,-0.0069717746228,-1.75042805495e-05,0.220135331154,-9.70576763153,0.452363848686
1560000113150125504,-0.00530362408608,-0.00919751440972,-1.75042805495e-05,0.240003615618,-9.70578479767,0.451919138432
1560000113154043436,-0.00495136815855,-0.0104624330997,-1.75042805495e-05,0.239678651094,-9.70562362671,0.471854686737
1560000113157960176,-0.00222222472699,-0.00912636297913,-1.75042805495e-05,0.23935893178,-9.68565940857,0.471722781658
1560000113161878109,-0.00181296560913,-0.00639647901674,-1.75042805495e-05,0.239998310804,-9.72558879852,0.471986621618
1560000113165795803,-0.00181296560913,-0.00366664463861,-1.75042805495e-05,0.260191559792,-9.72576808929,0.451606303453
1560000113169713974,-0.00181296560913,-0.00348111591302,-1.75042805495e-05,0.259227186441,-9.68567752838,0.471278041601
1560000113173631907,-0.00185216797692,-0.00522644538432,-1.75042805495e-05,0.239998310804,-9.72558879852,0.471986621618
1560000113177549601,-0.0045815105453,-0.00522644538432,-1.75042805495e-05,0.220130071044,-9.72557163239,0.472431361675
1560000113181466579,-0.00504150114335,-0.00548856832706,-1.75042805495e-05,0.21948543191,-9.70544433594,0.492235034704
1560000113185383320,-0.00355829484761,-0.00572563292343,-1.75042805495e-05,0.25986135006,-9.74540901184,0.49160939455
1560000113189301252,-0.00530362408608,-0.00474121631611,-1.75042805495e-05,0.199617162347,-9.70542621613,0.492679774761
1560000113193219185,-0.00383354051942,-0.00348111591302,-1.75042805495e-05,0.219165712595,-9.6854801178,0.492103099823
1560000113197135925,-0.00355829484761,-0.00348111591302,-1.75042805495e-05,0.239668130875,-9.74522972107,0.511989712715
1560000113201053858,-0.00355829484761,-0.00348111591302,-1.75042805495e-05,0.21948543191,-9.70544433594,0.492235034704
1560000113204971790,-0.00355829484761,-0.00348111591302,-0.00176283356268,0.238698512316,-9.72494220734,0.551729023457
1560000113208889723,-0.00355829484761,-0.00522644538432,-1.75042805495e-05,0.240637689829,-9.7655172348,0.472250461578
1560000113212806702,-0.00471409619412,-0.00638224673084,-1.75042805495e-05,0.238709032536,-9.68533611298,0.511593937874
1560000113216724396,-0.00530362408608,-0.0104624330997,-1.75042805495e-05,0.239353716373,-9.70546150208,0.491790294647
1560000113220641375,-0.00392434197119,-0.00908315098486,-1.75042805495e-05,0.21947491169,-9.7450504303,0.532370090485
1560000113224559069,-0.00355829484761,-0.00522644538432,-1.75042805495e-05,0.25890225172,-9.68551540375,0.491213649511
1560000113228477001,-0.00355829484761,-0.00522644538432,-1.75042805495e-05,0.219160482287,-9.70528316498,0.512170672417
1560000113232393980,-0.00355829484761,-0.00522644538432,-1.75042805495e-05,0.239673376083,-9.72542667389,0.491922229528
1560000113236311674,-0.00530362408608,-0.00522644538432,-1.75042805495e-05,0.239678651094,-9.70562362671,0.471854686737
1560000113240229845,-0.00530362408608,-0.00629212141628,-1.75042805495e-05,0.239668130875,-9.74522972107,0.511989712715
1560000113244146585,-0.00674502079562,-0.00757963968067,-0.00176283356268,0.259541660547,-9.7254447937,0.491477489471
1560000113248064518,-0.00530362408608,-0.0104624330997,-0.000473977395444,0.259546905756,-9.70564174652,0.471409976482
1560000113251982450,-0.00355829484761,-0.00871710386127,-1.75042805495e-05,0.239678651094,-9.70562362671,0.471854686737
1560000113255899191,-0.00355829484761,-0.00569354904795,-1.75042805495e-05,0.239998310804,-9.72558879852,0.471986621618
1560000113259816170,-0.00530362408608,-0.00447562313171,-0.000768326451778,0.259546905756,-9.70564174652,0.471409976482
1560000113263733864,-0.00530362408608,-0.00348111591302,-0.00349753345254,0.259546905756,-9.70564174652,0.471409976482
1560000113267651796,-0.00530362408608,-0.000761379381116,-0.00176283356268,0.258577287197,-9.68535423279,0.511149287224
1560000113271568537,-0.00355829484761,-0.000203578040458,-0.001975954054,0.259546905756,-9.70564174652,0.471409976482
1560000113275485516,-0.00475501166571,-0.00173578679096,-0.00350816268474,0.239998310804,-9.72558879852,0.471986621618
1560000113279403448,-0.00530362408608,-0.00391744845501,-0.00176283356268,0.218835532665,-9.70512104034,0.532106220722
1560000113283321381,-0.00530362408608,-0.00522644538432,-0.00176283356268,0.220135331154,-9.70576763153,0.452363848686
1560000113287238359,-0.00464416357883,-0.00348111591302,-0.00284870222148,0.219160482287,-9.70528316498,0.512170672417
1560000113291156054,-0.00355829484761,-0.00348111591302,-0.000118694223181,0.21948543191,-9.70544433594,0.492235034704
1560000113295073986,-0.00181296560913,-0.00522644538432,-1.75042805495e-05,0.198967263103,-9.70510292053,0.532550930977
1560000113298991919,-0.00355829484761,-0.0069717746228,-1.75042805495e-05,0.239678651094,-9.70562362671,0.471854686737
1560000113302908659,-0.00466509306021,-0.0069717746228,-0.00112430252083,0.23902875185,-9.70530033112,0.511725902557
1560000113306826591,-0.00495771526171,-0.0069717746228,-0.00176283356268,0.239668130875,-9.74522972107,0.511989712715
1560000113310744524,-0.00222774487261,-0.0069717746228,-0.00176283356268,0.220449760556,-9.74553585052,0.472563266754
1560000113314663410,-0.00181296560913,-0.0069717746228,-1.75042805495e-05,0.238703817129,-9.70513820648,0.531661510468
1560000113318581343,-0.00336796818276,-0.00852677719643,-1.75042805495e-05,0.259536385536,-9.74524784088,0.51154500246
1560000113322499275,-0.00276361971858,-0.00871710386127,-0.000812179429457,0.238709032536,-9.68533611298,0.511593937874
1560000113326416016,-0.00181296560913,-0.0069717746228,-0.00172928519785,0.220135331154,-9.70576763153,0.452363848686
1560000113330333948,-0.00283094968727,-0.00493580633072,-0.00103548838415,0.260186284781,-9.74557113647,0.471673816442
1560000113334251642,-0.00355829484761,-0.00322400046242,-1.75042805495e-05,0.23935893178,-9.68565940857,0.471722781658
1560000113338168621,-0.00355829484761,-0.00297694286775,-1.75042805495e-05,0.259541660547,-9.7254447937,0.491477489471
1560000113342086554,-0.00181296560913,-0.00522644538432,-0.00049791484101,0.260186284781,-9.74557113647,0.471673816442
1560000113346004486,-0.00181296560913,-0.00522644538432,-0.000297706979156,0.239678651094,-9.70562362671,0.471854686737
1560000113349922419,-0.002517312013,-0.00593079178819,-1.75042805495e-05,0.2194801718,-9.72524833679,0.512302517891
1560000113353839159,-0.00524648186424,-0.0069717746228,-0.00170569133941,0.280059844255,-9.72578620911,0.451161563396
1560000113357757092,-0.00530362408608,-0.00522644538432,-1.75042805495e-05,0.239364206791,-9.66585540771,0.451655268669
1560000113361674070,-0.00355829484761,-0.00522644538432,-1.75042805495e-05,0.279415160418,-9.70565986633,0.470965206623
1560000113365591764,-0.00355829484761,-0.00637715306704,-1.75042805495e-05,0.239673376083,-9.72542667389,0.491922229528
1560000113369510651,-0.00355829484761,-0.00871710386127,-0.000408530264574,0.239998310804,-9.72558879852,0.471986621618
1560000113373429775,-0.00355829484761,-0.00734113541609,-0.00176283356268,0.23902875185,-9.70530033112,0.511725902557
1560000113377347469,-0.00530362408608,-0.00522644538432,-0.00176283356268,0.198647558689,-9.68513870239,0.532419085503
1560000113381265402,-0.00530362408608,-0.00522644538432,-0.00016240833951,0.239353716373,-9.70546150208,0.491790294647
1560000113385183334,-0.00271910207072,-0.00522644538432,-0.000856697078431,0.23934841156,-9.72526550293,0.511857867241
1560000113389101028,-0.00181296560913,-0.00522644538432,-1.75042805495e-05,0.199292212725,-9.70526504517,0.512615382671
1560000113393018961,-0.000749652092426,-0.0062897589099,-1.75042805495e-05,0.238384097815,-9.68517398834,0.531529545784
1560000113396936655,-0.000370073756199,-0.0104624330997,-0.000319941661624,0.23902875185,-9.70530033112,0.511725902557
1560000113400854826,-0.00310049240157,-0.00917490630731,-0.00176283356268,0.218835532665,-9.70512104034,0.532106220722
1560000113404772758,-0.00355829484761,-0.00522644538432,-1.75042805495e-05,0.238698512316,-9.72494220734,0.551729023457
1560000113408689499,-0.00355829484761,-0.00522644538432,-1.75042805495e-05,0.218840762973,-9.68531894684,0.512038707733
1560000113412608385,-0.00355829484761,-0.00772252514858,-1.75042805495e-05,0.23902875185,-9.70530033112,0.511725902557
1560000113416526318,-0.00182342935568,-0.00871710386127,-1.75042805495e-05,0.239023476839,-9.7251033783,0.531793415546
1560000113420444012,-0.00181296560913,-0.00774278872211,-1.75042805495e-05,0.2194801718,-9.72524833679,0.512302517891
1560000113424361944,-0.00181296560913,-0.00718570529405,-1.75042805495e-05,0.21948543191,-9.70544433594,0.492235034704
1560000113428278923,-0.00181296560913,-0.00871710386127,-0.00121499901899,0.199611902237,-9.72523021698,0.51274728775
1560000113432196856,-0.00399533363173,-0.0104624330997,-0.00132579476763,0.219155222178,-9.72508621216,0.532238125801
1560000113436115742,-0.00530362408608,-0.0104624330997,-1.75042805495e-05,0.239033997059,-9.68549728394,0.491658359766
1560000113440033436,-0.00355829484761,-0.0104624330997,-0.00176283356268,0.219490662217,-9.68564224243,0.472167521715
1560000113443950415,-0.00355829484761,-0.0104624330997,-0.00176283356268,0.239993095398,-9.74539089203,0.492054134607
1560000113447869301,-0.00355829484761,-0.00957680822011,-0.00350816268474,0.239678651094,-9.70562362671,0.471854686737
1560000113451786995,-0.00355829484761,-0.00871710386127,-0.00163820273166,0.220130071044,-9.72557163239,0.472431361675
1560000113455705166,-0.00355829484761,-0.00871710386127,-1.75042805495e-05,0.220135331154,-9.70576763153,0.452363848686
1560000113459624052,-0.00355829484761,-0.0108117316012,-1.75042805495e-05,0.240003615618,-9.70578479767,0.451919138432
1560000113463541746,-0.00489233260503,-0.0108737245808,-1.75042805495e-05,0.220130071044,-9.72557163239,0.472431361675
1560000113467459679,-0.00530362408608,-0.00988918605376,-1.75042805495e-05,0.259546905756,-9.70564174652,0.471409976482
1560000113471376657,-0.00530362408608,-0.00871710386127,-1.75042805495e-05,0.21948543191,-9.70544433594,0.492235034704
1560000113475295305,-0.00704895332456,-0.0095144369787,-1.75042805495e-05,0.21947491169,-9.7450504303,0.532370090485
1560000113479213476,-0.00701191430905,-0.0122448013537,-1.75042805495e-05,0.239353716373,-9.70546150208,0.491790294647
1560000113483131409,-0.00428198402815,-0.0129314515188,-1.75042805495e-05,0.259541660547,-9.7254447937,0.491477489471
1560000113487048149,-0.00355829484761,-0.0119477985321,-1.75042805495e-05,0.218510583043,-9.70495986938,0.552041828632
1560000113490967035,-0.00231293693355,-0.0104624330997,-1.75042805495e-05,0.219165712595,-9.6854801178,0.492103099823
1560000113494883776,-0.000551305997473,-0.0122077623382,-1.75042805495e-05,0.220124810934,-9.74537372589,0.492498874664
1560000113498801708,-0.00181296560913,-0.0136762447255,-0.00148598670452,0.218515813351,-9.6851568222,0.531974315643
1560000113502718449,-0.0025198716594,-0.0132461855264,-0.00176283356268,0.218840762973,-9.68531894684,0.512038707733
1560000113506636381,-0.00355829484761,-0.0122077623382,-7.13194064588e-05,0.199292212725,-9.70526504517,0.512615382671
1560000113510554552,-0.00437223917325,-0.0122077623382,-1.75042805495e-05,0.23934841156,-9.72526550293,0.511857867241
1560000113514472246,-0.00321800294049,-0.0139530915767,-1.75042805495e-05,0.238709032536,-9.68533611298,0.511593937874
1560000113518390179,-6.76363852108e-05,-0.0139530915767,-0.00117247516521,0.259216696024,-9.72528362274,0.511413097382
1560000113522308111,-0.00220757020442,-0.0139530915767,-0.00136822895752,0.220130071044,-9.72557163239,0.472431361675
1560000113526225805,-0.0049368503993,-0.012574536025,-1.75042805495e-05,0.25890225172,-9.68551540375,0.491213649511
1560000113530144691,-0.00468469459246,-0.0122077623382,-1.75042805495e-05,0.239673376083,-9.72542667389,0.491922229528
1560000113534061670,-0.00195519778536,-0.0138108594005,-1.75042805495e-05,0.279409945011,-9.72546291351,0.491032749414
1560000113537979603,-0.0026549828906,-0.0156984198838,-1.75042805495e-05,0.279084980488,-9.72530174255,0.510968327522
1560000113541897535,-0.00530362408608,-0.0137896537727,-9.92231845912e-05,0.239678651094,-9.70562362671,0.471854686737
1560000113545815229,-0.00530362408608,-0.0104624330997,-0.00176283356268,0.259541660547,-9.7254447937,0.491477489471
1560000113549733162,-0.00325301190704,-0.0107677160403,-0.00176283356268,0.259546905756,-9.70564174652,0.471409976482
1560000113553651094,-0.00181296560913,-0.0122077623382,-0.00176283356268,0.239353716373,-9.70546150208,0.491790294647
1560000113557568789,-0.00181296560913,-0.0122077623382,-0.00229193291126,0.239678651094,-9.70562362671,0.471854686737
1560000113561486721,-0.0033267577264,-0.010693970221,-0.00350816268474,0.23934841156,-9.72526550293,0.511857867241
1560000113565404892,-0.00431194080791,-0.00871710386127,-0.00350816268474,0.259221971035,-9.70547962189,0.49134555459
1560000113569322586,-0.00356593505456,-0.00697941482975,-0.00177047376912,0.239678651094,-9.70562362671,0.471854686737
1560000113573240519,-0.00355829484761,-0.00969433576452,-1.75042805495e-05,0.259541660547,-9.7254447937,0.491477489471
1560000113577158451,-0.00355829484761,-0.0100285918505,-1.75042805495e-05,0.23902875185,-9.70530033112,0.511725902557
1560000113581076145,-0.00475962070119,-0.00577044876922,-1.75042805495e-05,0.239353716373,-9.70546150208,0.491790294647
1560000113584994078,-0.00530362408608,-0.00741230118934,-1.75042805495e-05,0.240318030119,-9.74555301666,0.472118556499
1560000113588913202,-0.00530362408608,-0.0101432425232,-1.75042805495e-05,0.240003615618,-9.70578479767,0.451919138432
1560000113592830896,-0.00289335254411,-0.00805216155777,-1.75042805495e-05,0.240003615618,-9.70578479767,0.451919138432
1560000113596748829,-0.00346291093997,-0.0069717746228,-1.75042805495e-05,0.240318030119,-9.74555301666,0.472118556499
1560000113600666523,-0.00444716159993,-0.00960597061359,-1.75042805495e-05,0.239683896303,-9.68582057953,0.45178720355
1560000113604584455,-0.00517538642257,-0.0104624330997,-1.75042805495e-05,0.218515813351,-9.6851568222,0.531974315643
1560000113608502388,-0.00355829484761,-0.00934950310072,-1.75042805495e-05,0.259541660547,-9.7254447937,0.491477489471
1560000113612420082,-0.00530362408608,-0.0104624330997,-1.75042805495e-05,0.219810381532,-9.70560646057,0.472299426794
1560000113616338253,-0.00530362408608,-0.0104624330997,-1.75042805495e-05,0.239678651094,-9.70562362671,0.471854686737
1560000113620256186,-0.00530362408608,-0.00871710386127,-1.75042805495e-05,0.239998310804,-9.72558879852,0.471986621618
1560000113624173880,-0.00374301006168,-0.00871710386127,-1.75042805495e-05,0.258577287197,-9.68535423279,0.511149287224
1560000113628092766,-0.00355829484761,-0.00871710386127,-0.00256374520962,0.239673376083,-9.72542667389,0.491922229528
1560000113632010698,-0.00530362408608,-0.00871710386127,-0.00346763554038,0.239353716373,-9.70546150208,0.491790294647
1560000113635928392,-0.00632858708354,-0.00871710386127,-0.000737870539579,0.279734879732,-9.72562503815,0.471097141504
1560000113639846325,-0.00503950712951,-0.0107265500563,-1.75042805495e-05,0.259541660547,-9.7254447937,0.491477489471
1560000113641803741,-0.00367573543479,-0.012090321751,-1.75042805495e-05,0.259221971035,-9.70547962189,0.49134555459
1560000113645720720,-6.76363852108e-05,-0.013464233181,-1.75042805495e-05,0.23902875185,-9.70530033112,0.511725902557
1560000113649637461,-6.76363852108e-05,-0.0107342426371,-1.75042805495e-05,0.260186284781,-9.74557113647,0.471673816442
1560000113653554440,-0.00252549098623,-0.0069717746228,-1.75042805495e-05,0.259546905756,-9.70564174652,0.471409976482
1560000113657471418,-0.00355829484761,-0.0052744652364,-1.75042805495e-05,0.279415160418,-9.70565986633,0.470965206623
1560000113661388159,-0.00355829484761,-0.0069717746228,-0.000954217040919,0.259866595268,-9.72560691833,0.471541881561
1560000113665304184,-0.00181296560913,-0.00871710386127,-1.75042805495e-05,0.259552150965,-9.68583869934,0.451342463493
1560000113669222116,-0.00297352782662,-0.00987766607876,-1.75042805495e-05,0.23902875185,-9.70530033112,0.511725902557
1560000113673137903,-0.00530362408608,-0.0104624330997,-1.75042805495e-05,0.240312755108,-9.76535511017,0.492186069489
1560000113677054882,-0.00530362408608,-0.00907826973184,-1.75042805495e-05,0.258897006512,-9.70531845093,0.511281132698
1560000113680971622,-0.00355829484761,-0.00634873986021,-1.75042805495e-05,0.219805121422,-9.72540950775,0.492366939783
1560000113684888601,-0.00195041788613,-0.00522644538432,-1.75042805495e-05,0.239673376083,-9.72542667389,0.491922229528
1560000113688804626,-0.00355829484761,-0.00348111591302,-1.75042805495e-05,0.238714307547,-9.66553211212,0.491526454687
1560000113692721367,-0.00364402450453,-0.00539790469816,-1.75042805495e-05,0.220130071044,-9.72557163239,0.472431361675
1560000113696638346,-0.00423335913723,-0.00871710386127,-1.75042805495e-05,0.21948543191,-9.70544433594,0.492235034704
1560000113700555086,-0.00181296560913,-0.00840762849668,-1.75042805495e-05,0.239353716373,-9.70546150208,0.491790294647
1560000113704472065,-0.00310721764884,-0.0056775225831,-0.00131175635263,0.239998310804,-9.72558879852,0.471986621618
1560000113708389044,-0.00355829484761,-0.00401498337433,-0.00404203007483,0.240003615618,-9.70578479767,0.451919138432
1560000113712306023,-0.00204022683621,-0.00522644538432,-0.00373542391181,0.220135331154,-9.70576763153,0.452363848686
1560000113716223001,-0.00355829484761,-0.00446876294579,-1.75042805495e-05,0.239673376083,-9.72542667389,0.491922229528
1560000113720139027,-0.00355829484761,-0.0052224579903,0.00172383752088,0.219160482287,-9.70528316498,0.512170672417
1560000113724055767,-0.00181296560913,-0.00522644538432,-1.75042805495e-05,0.239353716373,-9.70546150208,0.491790294647
1560000113727972746,-0.00181296560913,-0.00544675061686,-1.75042805495e-05,0.239998310804,-9.72558879852,0.471986621618
1560000113731889725,-0.00301795910068,-0.0069717746228,-1.75042805495e-05,0.23935893178,-9.68565940857,0.471722781658
1560000113735805511,-0.00355829484761,-0.00827366905055,-0.000460939102363,0.279409945011,-9.72546291351,0.491032749414
1560000113739722490,-0.00355829484761,-0.00554356661952,-0.000334625523682,0.239998310804,-9.72558879852,0.471986621618
1560000113743638277,-0.0042248440662,-0.00522644538432,-1.75042805495e-05,0.239678651094,-9.70562362671,0.471854686737
1560000113747555256,-0.00695491648172,-0.00522644538432,-1.75042805495e-05,0.25986135006,-9.74540901184,0.49160939455
1560000113751471043,-0.00530362408608,-0.00433665952776,-1.75042805495e-05,0.23902875185,-9.70530033112,0.511725902557
1560000113755388021,-0.00355829484761,-0.00361024552902,-0.000146633882559,0.220130071044,-9.72557163239,0.472431361675
1560000113759305000,-0.00244447410553,-0.00522644538432,-0.00176283356268,0.219160482287,-9.70528316498,0.512170672417
1560000113763220787,-0.00181296560913,-0.00522644538432,-0.00141064308224,0.219805121422,-9.72540950775,0.492366939783
1560000113767137766,-0.00181296560913,-0.0038894948857,-1.75042805495e-05,0.239998310804,-9.72558879852,0.471986621618
1560000113771054745,-0.00355829484761,-0.00580307207746,-1.75042805495e-05,0.239673376083,-9.72542667389,0.491922229528
1560000113774971485,-0.00199771662541,-0.00853235284499,-0.00157808254178,0.219805121422,-9.72540950775,0.492366939783
1560000113778888464,-6.76363852108e-05,-0.00951732336723,-0.00270794323216,0.23935893178,-9.68565940857,0.471722781658
1560000113782804251,-0.00355829484761,-0.0122077623382,-0.00172379330426,0.219810381532,-9.70560646057,0.472299426794
1560000113786721230,-0.00253509042522,-0.0122077623382,-1.75042805495e-05,0.218840762973,-9.68531894684,0.512038707733
1560000113790638208,-0.00207590331948,-0.0119448246279,-1.75042805495e-05,0.199611902237,-9.72523021698,0.51274728775
1560000113794553995,-0.00480519571853,-0.00921553222882,-1.75042805495e-05,0.199286952615,-9.72506809235,0.53268289566
1560000113798470974,-0.00704895332456,-0.00745792703905,-1.75042805495e-05,0.239353716373,-9.70546150208,0.491790294647
1560000113802387953,-0.00704895332456,-0.00871710386127,-1.75042805495e-05,0.219810381532,-9.70560646057,0.472299426794
1560000113806303740,-0.00808508104629,-0.00871710386127,-1.75042805495e-05,0.23934841156,-9.72526550293,0.511857867241
1560000113810220718,-0.00535512849939,-0.00702327903611,-1.75042805495e-05,0.219165712595,-9.6854801178,0.492103099823
1560000113814137459,-0.00437040049266,-0.00883822180964,-1.75042805495e-05,0.199286952615,-9.72506809235,0.53268289566
1560000113818054438,-0.00373048454656,-0.0123799520372,-1.75042805495e-05,0.218840762973,-9.68531894684,0.512038707733
1560000113821970463,-0.00646008784826,-0.0151095547218,-1.75042805495e-05,0.21948543191,-9.70544433594,0.492235034704
1560000113825887203,-0.00744487111546,-0.0149065845133,-1.75042805495e-05,0.219810381532,-9.70560646057,0.472299426794
1560000113829804182,-0.0060342508435,-0.0108277464785,-1.75042805495e-05,0.199942111969,-9.70558834076,0.472744166851
1560000113833719969,-0.0064300718065,-0.0069717746228,-0.00238171503945,0.199617162347,-9.70542621613,0.492679774761
1560000113837636948,-0.00530362408608,-0.00857549675717,-0.00190444065734,0.200256541371,-9.74535560608,0.492943614721
1560000113841553926,-0.0018719697145,-0.0104624330997,-0.00176283356268,0.239678651094,-9.70562362671,0.471854686737
1560000113845470667,-0.00189504027149,-0.0103803584374,-0.00176283356268,0.219160482287,-9.70528316498,0.512170672417
1560000113849388599,-0.00462577140841,-0.00871710386127,-0.000695356975177,0.220449760556,-9.74553585052,0.472563266754
1560000113853304625,-0.00499747258318,-0.0107685846027,-1.75042805495e-05,0.199942111969,-9.70558834076,0.472744166851
1560000113857221365,-0.00355829484761,-0.0134986479016,-1.75042805495e-05,0.23902875185,-9.70530033112,0.511725902557
1560000113861137390,-0.00355829484761,-0.0156984198838,-0.000546704271961,0.21948543191,-9.70544433594,0.492235034704
1560000113865054131,-0.00355829484761,-0.0172121473149,-0.00176283356268,0.220130071044,-9.72557163239,0.472431361675
1560000113868971109,-0.0025664227028,-0.0174437500536,-0.00176283356268,0.199617162347,-9.70542621613,0.492679774761
1560000113872888088,-0.00355829484761,-0.0174437500536,-0.00176283356268,0.2194801718,-9.72524833679,0.512302517891
1560000113876804829,-0.00355829484761,-0.0184208361937,-1.75042805495e-05,0.219810381532,-9.70560646057,0.472299426794
1560000113880721807,-0.00508697454496,-0.0174437500536,-1.75042805495e-05,0.219805121422,-9.72540950775,0.492366939783
1560000113884639025,-0.00235713486083,-0.0174437500536,-1.75042805495e-05,0.21948543191,-9.70544433594,0.492235034704
1560000113888555765,-0.002253534033,-0.0174437500536,-1.75042805495e-05,0.239033997059,-9.68549728394,0.491658359766
1560000113892472744,-0.00355829484761,-0.0160183972559,-0.00144285635333,0.21947491169,-9.7450504303,0.532370090485
1560000113896389723,-0.00355829484761,-0.0181081552493,-0.00176283356268,0.199286952615,-9.72506809235,0.53268289566
1560000113900306463,-0.00355829484761,-0.0224872695313,-0.00176283356268,0.23902875185,-9.70530033112,0.511725902557
1560000113904223442,-0.00355829484761,-0.0217912844625,-0.00087438069113,0.198967263103,-9.70510292053,0.532550930977
1560000113908140182,-0.00181296560913,-0.0190615880919,-1.75042805495e-05,0.238064408302,-9.66520881653,0.531397640705
1560000113912056208,-0.00292479265447,-0.0174437500536,-1.75042805495e-05,0.21948543191,-9.70544433594,0.492235034704
1560000113915973186,-0.00355829484761,-0.0177946107508,-0.00176283356268,0.21947491169,-9.7450504303,0.532370090485
1560000113919889927,-0.00355829484761,-0.020524534548,-0.00042737849213,0.219160482287,-9.70528316498,0.512170672417
1560000113923806906,-0.00413331503725,-0.0209344085306,-1.75042805495e-05,0.219805121422,-9.72540950775,0.492366939783
1560000113927723885,-0.00374422595686,-0.0209344085306,-1.75042805495e-05,0.23934841156,-9.72526550293,0.511857867241
1560000113931639671,-0.00530362408608,-0.0191890802234,-0.00256090712117,0.220135331154,-9.70576763153,0.452363848686
1560000113935556650,-0.00530362408608,-0.0191890802234,-0.00176283356268,0.218835532665,-9.70512104034,0.532106220722
1560000113939473391,-0.00428184579324,-0.0202108579711,-0.00176283356268,0.198972508311,-9.68530082703,0.512483477592
1560000113943390369,-0.00355829484761,-0.0226797368377,-1.75042805495e-05,0.199292212725,-9.70526504517,0.512615382671
1560000113947307348,-0.00355829484761,-0.0226797368377,-1.75042805495e-05,0.198967263103,-9.70510292053,0.532550930977
1560000113951223135,-0.00355829484761,-0.0214187142146,-0.00176283356268,0.218835532665,-9.70512104034,0.532106220722
1560000113955140114,-0.00502752979504,-0.0226797368377,-0.00176283356268,0.219160482287,-9.70528316498,0.512170672417
1560000113959057093,-0.00355829484761,-0.0209344085306,-1.75042805495e-05,0.218835532665,-9.70512104034,0.532106220722
1560000113962973833,-0.00186530067135,-0.0209344085306,-1.75042805495e-05,0.218835532665,-9.70512104034,0.532106220722
1560000113966889858,-0.00355829484761,-0.0226797368377,-0.000949088670107,0.199617162347,-9.70542621613,0.492679774761
1560000113970806599,-0.00530362408608,-0.0244250670075,-0.00159212364806,0.219155222178,-9.72508621216,0.532238125801
1560000113974723577,-0.00414793571234,-0.0244250670075,-0.0011731926832,0.218515813351,-9.6851568222,0.531974315643
1560000113978640556,-0.00355829484761,-0.0244250670075,-0.00176283356268,0.199611902237,-9.72523021698,0.51274728775
1560000113982557297,-0.00355829484761,-0.0244250670075,-0.00176283356268,0.219805121422,-9.72540950775,0.492366939783
1560000113986474276,-0.00181296560913,-0.0238061847095,-0.00176283356268,0.219490662217,-9.68564224243,0.472167521715
1560000113990391254,-0.00181296560913,-0.0210758637891,-0.00176283356268,0.23934841156,-9.72526550293,0.511857867241
1560000113994307995,-0.00355829484761,-0.0191890802234,-0.00176283356268,0.2194801718,-9.72524833679,0.512302517891
1560000113998224020,-0.00530362408608,-0.019352232896,-9.90806624068e-05,0.239673376083,-9.72542667389,0.491922229528
1560000114002140760,-0.00636966906821,-0.0237457823887,-0.00176283356268,0.199931591749,-9.74519443512,0.512879252434
1560000114006057978,-0.00499813705926,-0.0247305541974,-0.00176283356268,0.239353716373,-9.70546150208,0.491790294647
1560000114009974957,-0.0022680302014,-0.0261703971773,-0.000472568884195,0.239673376083,-9.72542667389,0.491922229528
1560000114013891697,-0.00181296560913,-0.0256411463938,-1.75042805495e-05,0.23934841156,-9.72526550293,0.511857867241
1560000114017808676,-0.00181296560913,-0.0259391268377,-1.75042805495e-05,0.219160482287,-9.70528316498,0.512170672417
1560000114021725655,-0.00181296560913,-0.0279157254845,-0.00176283356268,0.218835532665,-9.70512104034,0.532106220722
1560000114025641441,-0.00181296560913,-0.0296527458174,-2.58122594615e-05,0.200261801481,-9.72555351257,0.472876101732
1560000114029558420,-0.00181296560913,-0.0296610537916,-1.75042805495e-05,0.239673376083,-9.72542667389,0.491922229528
1560000114033474207,-0.00355829484761,-0.0279157254845,-1.75042805495e-05,0.219160482287,-9.70528316498,0.512170672417
1560000114037391186,-0.00355829484761,-0.0279157254845,-1.75042805495e-05,0.23934841156,-9.72526550293,0.511857867241
1560000114041306973,-0.00355829484761,-0.0257320702249,-1.75042805495e-05,0.218840762973,-9.68531894684,0.512038707733
1560000114045223951,-0.00213507333199,-0.0244250670075,-1.75042805495e-05,0.219805121422,-9.72540950775,0.492366939783
1560000114049139977,-0.0024748611184,-0.0261703971773,-0.00176283356268,0.198967263103,-9.70510292053,0.532550930977
1560000114053056717,-0.00520461275842,-0.024524078388,-0.00176283356268,0.218846023083,-9.66551494598,0.491971164942
1560000114056972742,-0.00530362408608,-0.0235401859576,-0.00176283356268,0.199617162347,-9.70542621613,0.492679774761
1560000114060888529,-0.00530362408608,-0.0246720491714,-1.75042805495e-05,0.218835532665,-9.70512104034,0.532106220722
1560000114064805508,-0.00419539124044,-0.0279157254845,-1.75042805495e-05,0.199611902237,-9.72523021698,0.51274728775
1560000114068722486,-0.00146559557514,-0.027568355633,-1.75042805495e-05,0.218515813351,-9.6851568222,0.531974315643
1560000114072638273,-6.76363852108e-05,-0.0275016980959,-1.75042805495e-05,0.219165712595,-9.6854801178,0.492103099823
1560000114076555252,-0.00238399817729,-0.0319774137184,-1.75042805495e-05,0.199142873287,-9.65567684174,0.472414374352
1560000114080471039,-0.00355829484761,-0.0315966862619,-0.0015725278368,0.199931591749,-9.74519443512,0.512879252434
1560000114084388018,-0.0043522005814,-0.0314063802361,-0.0027142570039,0.219155222178,-9.72508621216,0.532238125801
1560000114088304996,-0.00359185529335,-0.0314063802361,-0.00176283356268,0.198967263103,-9.70510292053,0.532550930977
1560000114092221737,-0.00530362408608,-0.0314063802361,-0.00176283356268,0.198962002993,-9.72490692139,0.552618503571
1560000114096137762,-0.00530362408608,-0.0331517122686,-0.00176283356268,0.17909899354,-9.70508575439,0.532995700836
1560000114100054741,-0.00530362408608,-0.0331517122686,-0.00176283356268,0.199292212725,-9.70526504517,0.512615382671
1560000114103971481,-0.00307797629866,-0.0331517122686,-0.00176283356268,0.218830272555,-9.7249250412,0.552173733711
1560000114107889414,-0.000347194789266,-0.0346174823185,-0.00176283356268,0.198967263103,-9.70510292053,0.532550930977
1560000114111806393,-0.00181296560913,-0.0373473171049,-1.75042805495e-05,0.180068582296,-9.7253742218,0.493256419897
1560000114115723133,-0.00350247064187,-0.0400772050465,-1.75042805495e-05,0.179418683052,-9.72505092621,0.53312766552
1560000114119640112,-0.0044874534904,-0.0428075156766,-0.00176283356268,0.198967263103,-9.70510292053,0.532550930977
1560000114123556852,-0.00530362408608,-0.0432876497451,-1.75042805495e-05,0.179413422942,-9.74485397339,0.553195118904
1560000114127473831,-0.00530362408608,-0.0389803316605,-0.00117020248643,0.159875363111,-9.72519493103,0.513636767864
1560000114131390810,-0.00704895332456,-0.0409178871788,-0.00176283356268,0.178774043918,-9.70492458344,0.552931308746
1560000114135306597,-0.00567312556932,-0.0449995128579,-0.00176283356268,0.159225463867,-9.72487163544,0.55350792408
1560000114139224529,-0.00468745961407,-0.0488596744835,-0.00350816268474,0.159550413489,-9.7250328064,0.533572375774
1560000114143140554,-0.00355829484761,-0.0488596744835,-0.00190854129882,0.158911019564,-9.68510341644,0.533308506012
1560000114147057295,-0.00271919421198,-0.0479534463643,-0.00176283356268,0.159225463867,-9.72487163544,0.55350792408
1560000114150975227,-0.00181296560913,-0.0489390906089,-0.00350816268474,0.159550413489,-9.7250328064,0.533572375774
1560000114154892445,-0.00287718301823,-0.0527334387446,-0.00350816268474,0.158905774355,-9.70490646362,0.553376078606
1560000114158807993,-0.00386078984241,-0.057888814578,-0.00176283356268,0.140001833439,-9.74497890472,0.534149050713
1560000114162725210,-0.00659106368979,-0.0606190897164,-0.00176283356268,0.159235969186,-9.68526554108,0.513372898102
1560000114166641951,-0.00704895332456,-0.0610769800842,-0.00298162203793,0.138392835855,-9.68476200104,0.573624432087
1560000114170558929,-0.00553786354041,-0.0610769800842,-0.00176283356268,0.159225463867,-9.72487163544,0.55350792408
1560000114174475908,-0.00455320405182,-0.0635727275033,-1.75042805495e-05,0.139037504792,-9.70488834381,0.553820729256
1560000114178390741,-0.00355829484761,-0.0663011724078,-1.75042805495e-05,0.128453463316,-9.70455646515,0.593914330006
1560000114182308674,-0.000839129671369,-0.0680582970381,-0.00176283356268,0.139026984572,-9.74449443817,0.593955814838
1560000114186225653,-6.76363852108e-05,-0.0680582970381,-0.00176283356268,0.158900514245,-9.7247095108,0.57344353199
1560000114190142393,-0.00246264566496,-0.0692558010439,-0.00176283356268,0.13870729506,-9.72453022003,0.59382390976
1560000114194059372,-0.00530362408608,-0.0719860747407,-0.00307104139234,0.138062655926,-9.70440292358,0.613627552986
1560000114197975159,-0.00530362408608,-0.0732942819595,-0.00176283356268,0.119169227779,-9.70487117767,0.554265499115
1560000114201892138,-0.00355829484761,-0.0763597824774,-0.00176283356268,0.13870203495,-9.74433231354,0.613891363144
1560000114205808163,-0.00355829484761,-0.0834631006422,-0.00176283356268,0.129423052073,-9.72484493256,0.554175078869
1560000114209724903,-0.00355829484761,-0.0872569158673,-0.00350816268474,0.128783658147,-9.6849155426,0.553911209106
1560000114213640928,-0.00355829484761,-0.0872569158673,-0.00513154332594,0.129737481475,-9.7646112442,0.574374496937
1560000114217558861,-0.00466566502662,-0.0872569158673,-0.00350816268474,0.138062655926,-9.70440292358,0.613627552986
1560000114221473694,-0.00530362408608,-0.0896926657306,-0.0014176233286,0.12909810245,-9.72468280792,0.574110627174
1560000114225391626,-0.00397286079834,-0.093823670817,-0.00134826760158,0.128778412938,-9.70471763611,0.573978722095
1560000114229307413,-0.00530362408608,-0.098297816034,-0.00176283356268,0.138392835855,-9.68476200104,0.573624432087
1560000114233224392,-0.00530362408608,-0.101027821197,-0.00176283356268,0.139032244682,-9.72469139099,0.573888301849
1560000114237141371,-0.00530362408608,-0.104551544073,-0.00176283356268,0.140001833439,-9.74497890472,0.534149050713
1560000114241057158,-0.00530362408608,-0.108200870454,-1.75042805495e-05,0.179418683052,-9.72505092621,0.53312766552
1560000114244974136,-0.00631991884181,-0.107184576241,-1.75042805495e-05,0.140001833439,-9.74497890472,0.534149050713
1560000114248890877,-0.00679325980057,-0.106455542147,-0.00027319781093,0.158905774355,-9.70490646362,0.553376078606
1560000114252807856,-0.00530362408608,-0.108936568172,-0.00300334715434,0.138717785478,-9.68492412567,0.553688883781
1560000114256723881,-0.00355829484761,-0.113915799067,-0.00350816268474,0.160200312734,-9.72535610199,0.493701159954
1560000114260640621,-0.00355829484761,-0.115182183683,-0.00204457991306,0.159875363111,-9.72519493103,0.513636767864
1560000114264556646,-0.00530362408608,-0.116586623247,-0.00176283356268,0.138398095965,-9.66495895386,0.553556919098
1560000114268473387,-0.00530362408608,-0.120359527308,-0.00176283356268,0.140326783061,-9.74514102936,0.514213442802
1560000114272390366,-0.00530362408608,-0.124835156005,-0.00268915733065,0.140651732683,-9.74530220032,0.494277834892
1560000114276307344,-0.00530362408608,-0.125819386758,-0.0050882674638,0.139687404037,-9.7052116394,0.513949632645
1560000114280224085,-0.00530362408608,-0.128549543491,-0.00235812284133,0.140326783061,-9.74514102936,0.514213442802
1560000114284141064,-0.00530362408608,-0.12953395768,-0.000406629686196,0.158580824733,-9.70474433899,0.573311567307
1560000114288058043,-0.00530362408608,-0.132264030119,-0.00313670352454,0.158586069942,-9.68494224548,0.553244113922
1560000114291973829,-0.0046910560572,-0.134380817413,-0.00350816268474,0.158255875111,-9.70458316803,0.593247175217
1560000114295889854,-0.000364508877132,-0.134380817413,-0.00031437676752,0.138717785478,-9.68492412567,0.553688883781
1560000114299807549,-6.76363852108e-05,-0.136962428574,-1.75042805495e-05,0.178124144673,-9.70460128784,0.592802524567
1560000114303724527,-0.00188889263336,-0.139692729319,-0.00168690653655,0.157925665379,-9.72422504425,0.633250355721
1560000114307640553,-0.00461819081997,-0.142422026049,-0.00107740027942,0.157930925488,-9.7044210434,0.613182783127
1560000114311557293,-0.00325937569124,-0.144852787256,-1.75042805495e-05,0.158575564623,-9.72454833984,0.5933791399
1560000114315473318,-0.00181296560913,-0.144852787256,-1.75042805495e-05,0.157936170697,-9.68461894989,0.593115329742
1560000114319390059,-0.00233482008766,-0.145896495656,-0.00298630824102,0.158266380429,-9.66497707367,0.553112149239
1560000114323306084,-0.00506443109558,-0.149849579315,-0.00176283356268,0.158575564623,-9.72454833984,0.5933791399
1560000114327223063,-0.00530362408608,-0.151834100485,-1.75042805495e-05,0.157611221075,-9.68445682526,0.613050878048
1560000114331139803,-0.0035737461716,-0.153563992245,-1.75042805495e-05,0.158900514245,-9.7247095108,0.57344353199
1560000114335056782,-0.00452773769117,-0.157070100307,-0.000986947148362,0.178124144673,-9.70460128784,0.592802524567
1560000114338972569,-0.00530362408608,-0.157070100307,-0.00350816268474,0.178129374981,-9.68479824066,0.572734951973
1560000114342889547,-0.00530362408608,-0.157070100307,-0.00350816268474,0.158580824733,-9.70474433899,0.573311567307
1560000114346805573,-0.0031269470793,-0.159678123691,-0.0030768149452,0.158900514245,-9.7247095108,0.57344353199
1560000114350722313,-0.000396890397186,-0.163722159697,-0.00317890869198,0.158905774355,-9.70490646362,0.553376078606
1560000114354639292,-0.00072273753501,-0.16339631273,-0.00285306157317,0.159555673599,-9.70522975922,0.513504862785
1560000114358556509,-0.00509351912867,-0.162306085229,-0.00176283356268,0.159545153379,-9.74483585358,0.553639888763
1560000114362473249,-0.00616972394168,-0.162306085229,-0.00352129226978,0.178774043918,-9.70492458344,0.552931308746
1560000114366390228,-0.0051849981318,-0.164170039427,-0.00525349192321,0.178779274225,-9.68512153625,0.532863795757
1560000114370306969,-0.00355829484761,-0.165796741843,-0.0041503825371,0.179738372564,-9.74501514435,0.533259510994
1560000114374223948,-0.00321591004289,-0.16962978308,-1.75042805495e-05,0.159235969186,-9.68526554108,0.513372898102
1560000114378140926,-0.000485817932618,-0.172359873744,-1.75042805495e-05,0.139682143927,-9.72501468658,0.534017086029
1560000114382057667,-6.76363852108e-05,-0.172211903572,-1.75042805495e-05,0.13870729506,-9.72453022003,0.59382390976
1560000114385973692,-6.76363852108e-05,-0.1725830039,-1.75042805495e-05,0.160520002246,-9.74532032013,0.493833094835
1560000114389890671,-0.00260273314288,-0.172778055072,-0.00255260104375,0.159550413489,-9.7250328064,0.533572375774
1560000114393807411,-0.00352970741773,-0.174523383379,-0.00350816268474,0.179743632674,-9.72521305084,0.51319205761
1560000114397724390,-0.00181296560913,-0.175536853248,-0.00350816268474,0.19864231348,-9.70494174957,0.552486538887
1560000114401641369,-0.00181296560913,-0.178267241435,-0.00350816268474,0.179413422942,-9.74485397339,0.553195118904
1560000114405558109,-0.00181296560913,-0.1797593683,-0.00227054467064,0.159230723977,-9.70506763458,0.533440470695
1560000114409475088,-0.00355829484761,-0.181504696608,-0.0022396629363,0.158580824733,-9.70474433899,0.573311567307
1560000114413391829,-0.00355829484761,-0.180043247408,-0.00496961266382,0.179413422942,-9.74485397339,0.553195118904
1560000114417307854,-0.00181296560913,-0.179059242333,-0.00525349192321,0.178129374981,-9.68479824066,0.572734951973
1560000114421224833,-0.00181296560913,-0.178014039993,-0.00525349192321,0.198962002993,-9.72490692139,0.552618503571
1560000114425141573,-0.00355829484761,-0.178937900479,-0.00525349192321,0.177799195051,-9.70443916321,0.612738072872
1560000114429058552,-0.00514047195816,-0.183576343898,-0.00350816268474,0.177474245429,-9.70427799225,0.632673680782
1560000114432975531,-0.00355829484761,-0.187888514908,-0.004655981775,0.197997659445,-9.6848154068,0.572290182114
1560000114436892271,-0.00355829484761,-0.192363608482,-0.00350816268474,0.178124144673,-9.70460128784,0.592802524567
1560000114440810204,-0.00218595553904,-0.192349671083,-0.00350816268474,0.197672709823,-9.68465423584,0.592225790024
1560000114444727182,-6.76363852108e-05,-0.191976681352,-0.00350816268474,0.17650988698,-9.66418647766,0.65234541893
1560000114448642969,-6.76363852108e-05,-0.193571997094,-0.00191284619723,0.177804425359,-9.6846370697,0.592670559883
1560000114452559948,-0.00348285887488,-0.196302284153,-1.75042805495e-05,0.197022810578,-9.68433094025,0.632097005844
1560000114456475735,-0.00530362408608,-0.19895799458,-9.12717588394e-05,0.197662204504,-9.7242603302,0.632360816002
1560000114460392714,-0.00530362408608,-0.19895799458,-0.00282133449424,0.217535734177,-9.70447444916,0.611848592758
1560000114464309931,-0.00355829484761,-0.197212666273,-0.00350816268474,0.198322609067,-9.68497753143,0.552354633808
1560000114468226671,-0.00355829484761,-0.198494944923,-0.00222588343623,0.178443834186,-9.72456645966,0.592934370041
1560000114472143650,-0.00355829484761,-0.201224844689,-0.00124131147004,0.17909373343,-9.72488975525,0.55306327343
1560000114476060629,-0.00355829484761,-0.203954975387,-1.75042805495e-05,0.160195052624,-9.74515914917,0.513768672943
1560000114479977369,-0.004303633631,-0.204193979502,-0.00176283356268,0.180383011699,-9.76514148712,0.513455867767
1560000114483894348,-0.00357358031446,-0.204193979502,-0.00176283356268,0.160514742136,-9.76512336731,0.513900637627
1560000114487811089,-0.00355829484761,-0.206908842653,-0.00447769804609,0.179743632674,-9.72521305084,0.51319205761
1560000114491728067,-0.00181296560913,-0.209638547657,-0.00329959425422,0.160195052624,-9.74515914917,0.513768672943
1560000114495644093,-0.00181296560913,-0.209982735459,-0.000570260724032,0.159875363111,-9.72519493103,0.513636767864
1560000114499560833,-0.00181296560913,-0.209429979324,-1.75042805495e-05,0.140326783061,-9.74514102936,0.514213442802
1560000114503475904,-0.00039738940242,-0.210845554787,-0.00143308053447,0.130397900939,-9.72532939911,0.494368284941
1560000114507393599,-0.000722841124794,-0.214231044729,-0.00350816268474,0.140326783061,-9.74514102936,0.514213442802
1560000114511310577,-0.00181296560913,-0.218051245899,-0.00350816268474,0.179418683052,-9.72505092621,0.53312766552
1560000114515227556,-6.76363852108e-05,-0.21815662086,-0.00176283356268,0.178768783808,-9.72472763062,0.572998762131
1560000114519143343,-6.76363852108e-05,-0.216293497263,-0.00188062890757,0.158905774355,-9.70490646362,0.553376078606
1560000114523060322,-6.76363852108e-05,-0.214665964246,-0.00461060727645,0.138387605548,-9.70456504822,0.593691945076
1560000114526977301,0.000273953346434,-0.215007553792,-0.00525349192321,0.138062655926,-9.70440292358,0.613627552986
1560000114530894041,0.00167769286782,-0.217737575997,-0.00392720777142,0.138387605548,-9.70456504822,0.593691945076
1560000114534811020,0.00111209354666,-0.223958204796,-0.00176283356268,0.137737706304,-9.70424175262,0.633563160896
1560000114538727760,-6.76363852108e-05,-0.226687896771,-0.00176283356268,0.156636372209,-9.6839723587,0.672857642174
1560000114542643785,-0.00102395437955,-0.230206612333,-1.75042805495e-05,0.156961321831,-9.68413352966,0.652922093868
1560000114546560764,-0.00181296560913,-0.23034599398,-0.00181868365025,0.157286271453,-9.6842956543,0.632986485958
1560000114550477505,-0.000800159308514,-0.227615784934,-0.00525349192321,0.157286271453,-9.6842956543,0.632986485958
1560000114554394484,-6.76363852108e-05,-0.229133000588,-0.00325595762424,0.156961321831,-9.68413352966,0.652922093868
1560000114558310509,-0.00130352385212,-0.233355134135,-0.00176283356268,0.177468985319,-9.72408103943,0.652741193771
1560000114562227249,-0.00355829484761,-0.233864575624,-0.00350816268474,0.197028070688,-9.66452693939,0.61202943325
1560000114566144228,-0.00355829484761,-0.233864575624,-0.00204790409053,0.197342514992,-9.70429515839,0.632228970528
1560000114570060968,-0.00181296560913,-0.235609903932,-0.00420712488933,0.197992414236,-9.70461845398,0.592357754707
1560000114573977947,-0.00181296560913,-0.238977582346,-0.00525349192321,0.197667464614,-9.70445632935,0.612293362617
1560000114577893972,-0.00273557494496,-0.243513840905,-0.00258555341045,0.199286952615,-9.72506809235,0.53268289566
1560000114581810713,-0.00530362408608,-0.244013425092,-0.000179072009106,0.19863705337,-9.72474479675,0.572554111481
1560000114585728645,-0.00645083942287,-0.240845903754,-0.00176283356268,0.19864231348,-9.70494174957,0.552486538887
1560000114589645863,-0.00704895332456,-0.242977661295,-0.00350816268474,0.197667464614,-9.70445632935,0.612293362617
1560000114593561411,-0.00704895332456,-0.245706868916,-0.00350816268474,0.198631793261,-9.74454784393,0.592621564865
1560000114597478628,-0.00469360621482,-0.246691906221,-0.00289814485417,0.199606642127,-9.74503231049,0.532814860344
1560000114601394176,-0.00355829484761,-0.249420358227,-0.00176283356268,0.200246021152,-9.78496170044,0.533078670502
1560000114605311394,-0.00355829484761,-0.252150905173,-1.75042805495e-05,0.180063322186,-9.74517726898,0.513323962688
1560000114609228373,-0.00174036118113,-0.253135806914,-9.01087109709e-05,0.139362454414,-9.70504951477,0.53388518095
1560000114613145113,-6.76363852108e-05,-0.254808545113,-0.00176283356268,0.158905774355,-9.70490646362,0.553376078606
1560000114617062092,-0.000363896910142,-0.255401065851,-0.00146657302787,0.139037504792,-9.70488834381,0.553820729256
1560000114620979071,-0.00181296560913,-0.260861432417,-1.75042805495e-05,0.139362454414,-9.70504951477,0.53388518095
1560000114624895811,-0.000587811511316,-0.263535171747,-0.000537679424003,0.139357194304,-9.72485351562,0.553952693939
1560000114628812790,-0.00331786325255,-0.265040081436,-0.00326773110572,0.139687404037,-9.7052116394,0.513949632645
1560000114632729769,-0.00455951964699,-0.264536404561,-0.00525349192321,0.13871255517,-9.70472621918,0.573756337166
1560000114636646509,-0.00355829484761,-0.263535171747,-0.00352477863551,0.159550413489,-9.7250328064,0.533572375774
1560000114640562534,-0.00278048835773,-0.262757372313,-0.00176283356268,0.118694938719,-9.65512084961,0.53400015831
1560000114644479275,-0.00376457652686,-0.263535171747,-0.00196911522817,0.128453463316,-9.70455646515,0.593914330006
1560000114648397207,-0.00411171655102,-0.263535171747,-0.00350816268474,0.158261120319,-9.68478012085,0.573179721832
1560000114652314186,-0.00181296560913,-0.265711524009,-0.0030771497505,0.178779274225,-9.68512153625,0.532863795757
1560000114656230927,-0.00181296560913,-0.267025828362,-0.00176283356268,0.158580824733,-9.70474433899,0.573311567307
1560000114660146952,-0.00355829484761,-0.271825356992,-0.00176283356268,0.178449094296,-9.7047624588,0.572866916656
1560000114664063931,-0.00355829484761,-0.27728478353,-0.00176283356268,0.177804425359,-9.6846370697,0.592670559883
1560000114667980671,-0.00530362408608,-0.277497798204,-0.00264098044046,0.178438574076,-9.74436855316,0.613001942635
1560000114671897650,-0.00530362408608,-0.275870279083,-0.00513569657047,0.198322609067,-9.68497753143,0.552354633808
1560000114675814390,-0.00309906812523,-0.276395530223,-0.00240588477784,0.17909899354,-9.70508575439,0.532995700836
1560000114679731369,-6.76363852108e-05,-0.275752484798,-0.00176283356268,0.198962002993,-9.72490692139,0.552618503571
1560000114683648348,-6.76363852108e-05,-0.277078796754,-0.00176283356268,0.199292212725,-9.70526504517,0.512615382671
1560000114687564135,-0.00237762125192,-0.282117795304,-0.00176283356268,0.179423943162,-9.70524787903,0.513060092926
1560000114696316242,-0.00523656366334,-0.284479141235,-0.00176283356268,0.179743632674,-9.72521305084,0.51319205761
1560000114700234890,-0.00451531972715,-0.281945500819,-0.00176283356268,0.199286952615,-9.72506809235,0.53268289566
1560000114704152584,-0.00178655181167,-0.281014898179,-0.0017892473586,0.21947491169,-9.7450504303,0.532370090485
1560000114708071470,-6.76363852108e-05,-0.281722479407,-0.00350816268474,0.198962002993,-9.72490692139,0.552618503571
1560000114711989164,-0.000317893813675,-0.281238739781,-0.00350816268474,0.218830272555,-9.7249250412,0.552173733711
1560000114715907097,-0.00304670115273,-0.282733798027,-0.00474189822834,0.177799195051,-9.70443916321,0.612738072872
1560000114719825745,-0.00530362408608,-0.286697739992,-0.00478021036078,0.158261120319,-9.68478012085,0.573179721832
1560000114723743439,-0.00530362408608,-0.28796979785,-0.00350816268474,0.157936170697,-9.68461894989,0.593115329742
1560000114727662325,-0.00460725294664,-0.289715111256,-0.00176283356268,0.139676883817,-9.74481773376,0.554084658623
1560000114731580973,-0.00355829484761,-0.291396329349,-0.00176283356268,0.178134635091,-9.66499519348,0.552667498589
1560000114735498667,-0.00263869473247,-0.294125375346,-1.75042805495e-05,0.178124144673,-9.70460128784,0.592802524567
1560000114739417553,-0.00181296560913,-0.29320576787,-0.00192175673622,0.158261120319,-9.68478012085,0.573179721832
1560000114743336439,-0.00295658312941,-0.29320576787,-0.00350816268474,0.157611221075,-9.68445682526,0.613050878048
1560000114747255087,-0.003175501741,-0.29320576787,-0.00350816268474,0.157936170697,-9.68461894989,0.593115329742
1560000114751173735,-0.00181296560913,-0.29320576787,-0.00214075813174,0.13870729506,-9.72453022003,0.59382390976
1560000114755091667,-0.00416475900476,-0.295557569734,-0.00176283356268,0.137417986989,-9.68427753448,0.633431196213
1560000114759010553,-0.00530362408608,-0.301468153483,-0.0033534061117,0.157925665379,-9.72422504425,0.633250355721
1560000114762930155,-0.00621813676879,-0.302763233326,-0.00525349192321,0.158250615001,-9.72438621521,0.61331474781
1560000114766848803,-0.00530362408608,-0.302002828323,-0.00518308726821,0.158586069942,-9.68494224548,0.553244113922
1560000114770766497,-0.00530362408608,-0.302623972965,-0.00245438844809,0.157611221075,-9.68445682526,0.613050878048
1560000114774685621,-0.00734252590142,-0.30397131264,-0.00176283356268,0.177479475737,-9.68447494507,0.612606167793
1560000114778604269,-0.00879428256303,-0.307978378077,-0.00176283356268,0.17909899354,-9.70508575439,0.532995700836
1560000114782522917,-0.00704895332456,-0.310141904761,-0.00176283356268,0.219160482287,-9.70528316498,0.512170672417
1560000114786441565,-0.00704895332456,-0.308913737535,-0.00176283356268,0.220124810934,-9.74537372589,0.492498874664
1560000114790360689,-0.00805295379687,-0.307909746171,-0.0025041622794,0.219794601202,-9.76501464844,0.532501995564
1560000114794279337,-0.00532321746772,-0.310639487205,-0.00178242694301,0.201215609908,-9.80524921417,0.493339389563
1560000114798197985,-0.00530362408608,-0.309694041669,-0.00176283356268,0.201881289482,-9.74616336823,0.393265664577
1560000114802117825,-0.00879428256303,-0.307168424129,-0.00196798078607,0.20156159997,-9.72619915009,0.393133729696
1560000114806036711,-0.00760443627855,-0.307168424129,-0.00350816268474,0.20155633986,-9.74600219727,0.413201242685
1560000114809955359,-0.00487472508661,-0.309342639968,-0.00350816268474,0.181043416262,-9.72585868835,0.433449685574
1560000114813874006,-0.00214479285976,-0.313486083211,-0.00209466079118,0.181688070297,-9.74598503113,0.413645982742
1560000114817792892,-0.00181296560913,-0.318293516367,-0.00176283356268,0.182652398944,-9.78607559204,0.393974244595
1560000114821710587,-0.00345014659655,-0.32102290147,-0.00176283356268,0.201876029372,-9.76596641541,0.413333177567
1560000114825629473,-0.00355829484761,-0.321131050587,-0.00176283356268,0.202525928617,-9.766289711,0.373461991549
1560000114829547167,-0.00355829484761,-0.321131050587,-0.00176283356268,0.202206239104,-9.74632549286,0.373330056667
1560000114833465815,-0.00245876212383,-0.321131050587,-0.00176283356268,0.182018280029,-9.72634410858,0.373642891645
1560000114837384701,-0.00147419560749,-0.321131050587,-0.00176283356268,0.142596170306,-9.7660741806,0.394731789827
1560000114841303349,-6.76363852108e-05,-0.32245440569,-0.00176283356268,0.161489591002,-9.76560783386,0.454093843699
1560000114845222235,-6.76363852108e-05,-0.322313798836,-0.00176283356268,0.160850211978,-9.72567939758,0.453830003738
1560000114849139929,-6.76363852108e-05,-0.321131050587,-0.00176283356268,0.160205572844,-9.70555305481,0.473633646965
1560000114853058815,-6.76363852108e-05,-0.322703672969,-0.00429447429533,0.17942917347,-9.68544483185,0.492992579937
1560000114856977463,-6.76363852108e-05,-0.326367020607,-0.00522840689815,0.198972508311,-9.68530082703,0.512483477592
1560000114860895157,-6.76363852108e-05,-0.326367020607,-0.00350816268474,0.199611902237,-9.72523021698,0.51274728775
1560000114864814043,-6.76363852108e-05,-0.33010587261,-0.00151464015424,0.177804425359,-9.6846370697,0.592670559883
1560000114868733883,-6.76363852108e-05,-0.332836813869,-1.75042805495e-05,0.177799195051,-9.70443916321,0.612738072872
1560000114872652531,-6.76363852108e-05,-0.333348333836,-0.00176283356268,0.157605975866,-9.70425987244,0.633118391037
1560000114876571178,-6.76363852108e-05,-0.334805692813,-0.00176283356268,0.156961321831,-9.68413352966,0.652922093868
1560000114880490303,-6.76363852108e-05,-0.33753614918,-0.00176283356268,0.176675006747,-9.65436649323,0.632343888283
1560000114884408951,-6.76363852108e-05,-0.338584333658,-0.00176283356268,0.156641632318,-9.66416835785,0.652790188789
1560000114888327599,-6.76363852108e-05,-0.338584333658,-0.00350816268474,0.156481787562,-9.65418624878,0.652724206448
1560000114892246246,-0.000387836887899,-0.338744435192,-0.00334806244341,0.137423247099,-9.66447353363,0.613363683224
