#timestamp [ns],w_RS_S_x [rad s^-1],w_RS_S_y [rad s^-1],w_RS_S_z [rad s^-1],a_RS_S_x [m s^-2],a_RS_S_y [m s^-2],a_RS_S_z [m s^-2]1560244957128476858,0.0,0.0,0.0,0.181677550077,-9.78559112549,0.453781038523
1560244957132081509,0.0,0.0,0.0,0.180058062077,-9.76497936249,0.533391475677
1560244957135686398,0.0,0.0,0.0,0.181672289968,-9.80539417267,0.473848521709
1560244957139292002,0.0,0.0,0.0,0.201220870018,-9.78544712067,0.473271876574
1560244957142895937,0.0,0.0,0.0,0.16115938127,-9.78524971008,0.494096934795
1560244957146500826,0.0,0.0,0.0,0.181352600455,-9.78542995453,0.473716616631
1560244957150105476,0.0,0.0,0.0,0.180058062077,-9.76497936249,0.533391475677
1560244957153710127,0.0,0.0,0.0,0.201220870018,-9.78544712067,0.473271876574
1560244957157315969,0.0,0.0,0.0,0.200901180506,-9.76548194885,0.473139941692
1560244957160920858,0.0,0.0,0.0,0.200256541371,-9.74535560608,0.492943614721
1560244957164525747,0.0,0.0,0.0,0.181027650833,-9.7852678299,0.493652194738
1560244957168131351,0.0,0.0,0.0,0.16116464138,-9.7654466629,0.474029421806
1560244957177683115,0.0,0.0,0.0,0.201210349798,-9.82505321503,0.513406872749
1560244957181388855,0.0,0.0,0.0,0.218521073461,-9.66535377502,0.51190674305
1560244957185095787,0.0,0.0,0.0,0.28067818284,-9.84492778778,0.531695485115
1560244957188801765,0.0,0.0,0.0,0.299267679453,-9.76508522034,0.53072309494
1560244957192508459,0.0,0.0,0.0,0.29895851016,-9.70551490784,0.490456074476
1560244957196214437,0.0,0.0,0.0,0.160834431648,-9.78508853912,0.514032542706
1560244957199919462,0.0,0.0,0.0,0.101559825242,-9.76539325714,0.475363641977
1560244957203625202,0.0,0.0,0.0,0.101874254644,-9.80516052246,0.495563060045
1560244957207334042,0.0,0.0,0.0,0.161489591002,-9.76560783386,0.454093843699
1560244957211040974,0.0,0.0,0.0,0.18199723959,-9.80555534363,0.453912943602
1560244957214746714,0.0,0.0,0.0,0.20155107975,-9.76580429077,0.433268785477
1560244957218452930,0.0,0.0,0.0,0.163098558784,-9.82582569122,0.414618432522
1560244957222157717,0.0,0.0,0.0,0.122077979147,-9.76573371887,0.435047745705
1560244957225864410,0.0,0.0,0.0,0.0634322464466,-9.82557487488,0.436777710915
1560244957229570627,0.0,0.0,0.0,0.0627928674221,-9.78564548492,0.436513870955
1560244957233278275,0.0,0.0,0.0,0.083630733192,-9.80595016479,0.396329849958
1560244957236986160,0.0,0.0,0.0,0.142905324697,-9.82564544678,0.434998750687
1560244957240692854,0.0,0.0,0.0,0.162128970027,-9.80553722382,0.454357683659
1560244957244399786,0.0,0.0,0.0,0.162123709917,-9.82534122467,0.474425196648
1560244957248105764,0.0,0.0,0.0,0.141935750842,-9.80535793304,0.474738001823
1560244957251812458,0.0,0.0,0.0,0.140326783061,-9.74514102936,0.514213442802
1560244957255518436,0.0,0.0,0.0,0.130707070231,-9.78489971161,0.5346352458
1560244957259226322,0.0,0.0,0.0,0.140321522951,-9.76494312286,0.534280955791
1560244957262933016,0.0,0.0,0.0,0.200570970774,-9.78512382507,0.513143062592
1560244957266639948,0.0,0.0,0.0,0.259525865316,-9.78485393524,0.551680088043
1560244957274934530,0.0,0.0,0.0,0.298617780209,-9.76476192474,0.570594191551
1560244957278700590,0.0,0.0,0.0,0.260170519352,-9.80497932434,0.531876325607
1560244957282468081,0.0,0.0,0.0,0.199276432395,-9.76467323303,0.572817921638
1560244957286235094,0.0,0.0,0.0,0.199601382017,-9.76483535767,0.552882313728
1560244957290002108,0.0,0.0,0.0,0.218825012445,-9.7447271347,0.5722412467
1560244957293769598,0.0,0.0,0.0,0.23933789134,-9.76487064362,0.551992893219
1560244957297535658,0.0,0.0,0.0,0.25985082984,-9.7850151062,0.531744480133
1560244957301302910,0.0,0.0,0.0,0.239657610655,-9.78483581543,0.552124738693
1560244957305070162,0.0,0.0,0.0,0.239343196154,-9.74506759644,0.531925320625
1560244957308837175,0.0,0.0,0.0,0.200251281261,-9.76515865326,0.513011157513
1560244957312603474,0.0,0.0,0.0,0.200576230884,-9.76531982422,0.493075549603
1560244957316369534,0.0,0.0,0.0,0.181342080235,-9.82503604889,0.513851642609
1560244957320137024,0.0,0.0,0.0,0.180383011699,-9.76514148712,0.513455867767
1560244957323904037,0.0,0.0,0.0,0.181027650833,-9.7852678299,0.493652194738
1560244957327671051,0.0,0.0,0.0,0.180377751589,-9.7849445343,0.533523440361
1560244957331438541,0.0,0.0,0.0,0.181022390723,-9.80507087708,0.51371973753
1560244957335205555,0.0,0.0,0.0,0.180702701211,-9.78510665894,0.513587832451
1560244957338972569,0.0,0.0,0.0,0.16115938127,-9.78524971008,0.494096934795
1560244957342740059,0.0,0.0,0.0,0.181022390723,-9.80507087708,0.51371973753
1560244957346507072,0.0,0.0,0.0,0.180383011699,-9.76514148712,0.513455867767
1560244957350273371,0.0,0.0,0.0,0.199276432395,-9.76467323303,0.572817921638
1560244957354040623,0.0,0.0,0.0,0.199596121907,-9.78463840485,0.572949826717
1560244957357807636,0.0,0.0,0.0,0.180058062077,-9.76497936249,0.533391475677
1560244957361574888,0.0,0.0,0.0,0.199276432395,-9.76467323303,0.572817921638
1560244957365342140,0.0,0.0,0.0,0.178758263588,-9.7643327713,0.613133847713
1560244957369109154,0.0,0.0,0.0,0.21945913136,-9.80445957184,0.592572629452
1560244957376494646,0.0,0.0,0.0,0.238687992096,-9.76454734802,0.591864049435
1560244957380299330,0.0,0.0,0.0,0.198631793261,-9.74454784393,0.592621564865
1560244957384104013,0.0,0.0,0.0,0.179733112454,-9.76481819153,0.553327083588
1560244957387909889,0.0,0.0,0.0,0.179408162832,-9.76465606689,0.573262691498
1560244957391714573,0.0,0.0,0.0,0.179408162832,-9.76465606689,0.573262691498
1560244957395520210,0.0,0.0,0.0,0.180377751589,-9.7849445343,0.533523440361
1560244957399325848,0.0,0.0,0.0,0.180052801967,-9.78478336334,0.553458988667
1560244957403130531,0.0,0.0,0.0,0.181022390723,-9.80507087708,0.51371973753
1560244957406936407,0.0,0.0,0.0,0.16115938127,-9.78524971008,0.494096934795
1560244957410742283,0.0,0.0,0.0,0.161479070783,-9.80521392822,0.494228869677
1560244957414546967,0.0,0.0,0.0,0.14161606133,-9.7853937149,0.474606096745
1560244957418351650,0.0,0.0,0.0,0.160520002246,-9.74532032013,0.493833094835
1560244957422157526,0.0,0.0,0.0,0.181347340345,-9.80523204803,0.49378412962
1560244957425962210,0.0,0.0,0.0,0.161154121161,-9.80505275726,0.514164447784
1560244957429766893,0.0,0.0,0.0,0.161484330893,-9.78541183472,0.474161326885
1560244957433572531,0.0,0.0,0.0,0.14161606133,-9.7853937149,0.474606096745
1560244957437377214,0.0,0.0,0.0,0.141291111708,-9.78523159027,0.494541674852
1560244957441182137,0.0,0.0,0.0,0.14161606133,-9.7853937149,0.474606096745
1560244957444987774,0.0,0.0,0.0,0.14161606133,-9.7853937149,0.474606096745
1560244957448793411,0.0,0.0,0.0,0.161473810673,-9.82501792908,0.514296412468
1560244957452599049,0.0,0.0,0.0,0.181027650833,-9.7852678299,0.493652194738
1560244957456404924,0.0,0.0,0.0,0.200251281261,-9.76515865326,0.513011157513
1560244957460210800,0.0,0.0,0.0,0.180058062077,-9.76497936249,0.533391475677
1560244957464016438,0.0,0.0,0.0,0.180707961321,-9.76530265808,0.49352028966
1560244957467822075,0.0,0.0,0.0,0.180707961321,-9.76530265808,0.49352028966
1560244957471627712,0.0,0.0,0.0,0.180058062077,-9.76497936249,0.533391475677
1560244957478266716,0.0,0.0,0.0,0.200246021152,-9.78496170044,0.533078670502
1560244957482097626,0.0,0.0,0.0,0.220439240336,-9.78514194489,0.512698292732
1560244957485929012,0.0,0.0,0.0,0.239993095398,-9.74539089203,0.492054134607
1560244957489023924,0.0,0.0,0.0,0.18199723959,-9.80555534363,0.453912943602
1560244957489759922,0.0,0.0,0.0,0.201220870018,-9.78544712067,0.473271876574
1560244957493591070,0.0,0.0,0.0,0.162448659539,-9.82550239563,0.45448961854
1560244957497422218,-0.00181296560913,0.00524553004652,-0.00174274297381,0.181032910943,-9.76546478271,0.473584681749
1560244957501252413,-0.00181296560913,0.00524553004652,-0.00145405306333,0.180707961321,-9.76530265808,0.49352028966
1560244957505083561,-0.00181296560913,0.00524553004652,-0.00116529132321,0.20154055953,-9.80541133881,0.473403781652
1560244957508914471,-0.00181296560913,0.00524553004652,-0.000876547521659,0.220769450068,-9.76550006866,0.472695201635
1560244957512745619,-0.00181296560913,0.00524553004652,-0.000587785781543,0.241282373667,-9.78564357758,0.452446818352
1560244957516577005,-0.00181296560913,0.00524553004652,-0.000299006102863,0.201226130128,-9.76564311981,0.453204363585
1560244957520407915,-0.0018202048302,0.00522381238388,-1.75042805495e-05,0.181677550077,-9.78559112549,0.453781038523
1560244957524240017,-0.00210892847061,0.00435764148522,-1.75042805495e-05,0.181357860565,-9.76562595367,0.453649103642
1560244957525279522,-0.00218724832427,0.00412268193038,-1.75042805495e-05,0.161489591002,-9.76560783386,0.454093843699
1560244957528070927,-0.00239756230168,0.00349174001459,-1.75042805495e-05,0.181672289968,-9.80539417267,0.473848521709
1560244957531901360,-0.00268616019393,0.00262594636038,-1.75042805495e-05,0.181677550077,-9.78559112549,0.453781038523
1560244957535732508,-0.00297481195673,0.00175999109456,-1.75042805495e-05,0.181682795286,-9.76578712463,0.433713525534
1560244957539563417,-0.00326344571245,0.000894089849962,-1.75042805495e-05,0.221414089203,-9.78562641144,0.452891558409
1560244957543394566,-0.00355209755058,2.81343581098e-05,-1.75042805495e-05,0.181352600455,-9.78542995453,0.473716616631
1560244957547225475,-0.00355829484761,9.54246752372e-06,-1.75042805495e-05,0.181352600455,-9.78542995453,0.473716616631
1560244957551056862,-0.00355829484761,9.54246752372e-06,-1.75042805495e-05,0.161489591002,-9.76560783386,0.454093843699
1560244957554888010,-0.00355829484761,9.54246752372e-06,-1.75042805495e-05,0.181677550077,-9.78559112549,0.453781038523
1560244957558719873,-0.00355829484761,9.54246752372e-06,-1.75042805495e-05,0.160839691758,-9.76528453827,0.493964999914
1560244957561535358,-0.00355829484761,9.54246752372e-06,-1.75042805495e-05,0.161809280515,-9.78557300568,0.45422577858
1560244957562551022,-0.00355829484761,9.54246752372e-06,-1.75042805495e-05,0.181677550077,-9.78559112549,0.453781038523
1560244957566382408,-0.00355829484761,9.54246752372e-06,-1.75042805495e-05,0.201220870018,-9.78544712067,0.473271876574
1560244957570213318,-0.00382816998632,-0.000260332674287,-1.75042805495e-05,0.181022390723,-9.80507087708,0.51371973753
1560244957576301813,-0.00428707273999,-0.000719235433217,-1.75042805495e-05,0.181677550077,-9.78559112549,0.453781038523
1560244957580151320,-0.00457721822957,-0.00100938092612,-1.75042805495e-05,0.180388271809,-9.74533843994,0.493388354778
1560244957584000349,-0.00486732769128,-0.00129949039115,-1.75042805495e-05,0.16116464138,-9.7654466629,0.474029421806
1560244957587848902,-0.00515740127586,-0.00158956397906,-1.75042805495e-05,0.180388271809,-9.74533843994,0.493388354778
1560244957591697454,-0.00530362408608,-0.0015919346056,-1.75042805495e-05,0.181027650833,-9.7852678299,0.493652194738
1560244957595546484,-0.00530362408608,-0.00130182207088,-1.75042805495e-05,0.200901180506,-9.76548194885,0.473139941692
1560244957597790956,-0.00530362408608,-0.0011326497181,-1.75042805495e-05,0.161484330893,-9.78541183472,0.474161326885
1560244957599395990,-0.00530362408608,-0.00101167365866,-1.75042805495e-05,0.181027650833,-9.7852678299,0.493652194738
1560244957603244543,-0.00530362408608,-0.00072159707681,-1.75042805495e-05,0.200576230884,-9.76531982422,0.493075549603
1560244957607094526,-0.00530362408608,-0.00043141271172,-1.75042805495e-05,0.181027650833,-9.7852678299,0.493652194738
1560244957610943079,-0.00530362408608,-0.00014133612987,-1.75042805495e-05,0.14161080122,-9.80519580841,0.494673579931
1560244957614791632,-0.00530362408608,9.54246752372e-06,-1.75042805495e-05,0.181352600455,-9.78542995453,0.473716616631
1560244957618640661,-0.00530362408608,9.54246752372e-06,-1.75042805495e-05,0.182322174311,-9.80571651459,0.433977365494
1560244957622490168,-0.00530362408608,9.54246752372e-06,-1.75042805495e-05,0.201865509152,-9.80557250977,0.453468203545
1560244957626339197,-0.00530362408608,9.54246752372e-06,-1.75042805495e-05,0.20154581964,-9.78560829163,0.453336298466
1560244957630187750,-0.00530362408608,9.54246752372e-06,-1.75042805495e-05,0.201220870018,-9.78544712067,0.473271876574
1560244957634037256,-0.00530362408608,9.54246752372e-06,-1.75042805495e-05,0.161479070783,-9.80521392822,0.494228869677
1560244957634037495,-0.00530362408608,9.54246752372e-06,-1.75042805495e-05,0.161809280515,-9.78557300568,0.45422577858
1560244957637885332,-0.00530362408608,0.00014336726018,-1.75042805495e-05,0.161809280515,-9.78557300568,0.45422577858
1560244957641734838,-0.00530362408608,0.000433515653216,-1.75042805495e-05,0.181677550077,-9.78559112549,0.453781038523
1560244957645583391,-0.00530362408608,0.000723592215888,-1.75042805495e-05,0.180697441101,-9.80490875244,0.533655285835
1560244957649433374,-0.00530362408608,0.00101377656179,-1.75042805495e-05,0.180388271809,-9.74533843994,0.493388354778
1560244957653281927,-0.00530362408608,0.00130385312446,-1.75042805495e-05,0.180707961321,-9.76530265808,0.49352028966
1560244957657130718,-0.00530362408608,0.00159394762588,-1.75042805495e-05,0.160834431648,-9.78508853912,0.514032542706
1560244957660980463,-0.00517438306591,0.00188411271478,-1.75042805495e-05,0.140326783061,-9.74514102936,0.514213442802
1560244957664829016,-0.00488430948133,0.00217418631871,-1.75042805495e-05,0.160509482026,-9.78492641449,0.533968091011
1560244957668677807,-0.00459421795819,0.0024642778612,-1.75042805495e-05,0.181032910943,-9.76546478271,0.473584681749
1560244957670293570,-0.00447243448132,0.00258606134619,-1.75042805495e-05,0.181677550077,-9.78559112549,0.453781038523
1560244957672526598,-0.00430412643504,0.0027543694037,-1.75042805495e-05,0.160514742136,-9.76512336731,0.513900637627
1560244957678260803,-0.00387192726848,0.00318656859908,-1.75042805495e-05,0.160189792514,-9.76496124268,0.533836245537
1560244957682122231,-0.00358088326791,0.00347761261907,-1.75042805495e-05,0.160184532404,-9.78476524353,0.553903698921
1560244957685983896,-0.00355829484761,0.00350020104088,-1.75042805495e-05,0.160834431648,-9.78508853912,0.514032542706
1560244957689845800,-0.00355829484761,0.00350020104088,-1.75042805495e-05,0.160514742136,-9.76512336731,0.513900637627
1560244957693707228,-0.00355829484761,0.00350020104088,-1.75042805495e-05,0.179738372564,-9.74501514435,0.533259510994
1560244957697568893,-0.00355829484761,0.00350020104088,-1.75042805495e-05,0.180377751589,-9.7849445343,0.533523440361
1560244957701430321,-0.00355829484761,0.00350020104088,-1.75042805495e-05,0.180058062077,-9.76497936249,0.533391475677
1560244957705292225,-0.00355829484761,0.00350020104088,-1.75042805495e-05,0.200560450554,-9.82472991943,0.55327808857
1560244957706539869,-0.00355829484761,0.00350020104088,-8.93315572351e-05,0.202185198665,-9.82553768158,0.453600138426
1560244957709153891,-0.00355829484761,0.00350020104088,-0.000286357957591,0.181022390723,-9.80507087708,0.51371973753
1560244957713015318,-0.00355829484761,0.00350020104088,-0.000577404881467,0.200895920396,-9.78528499603,0.493207454681
1560244957716877222,-0.00355829484761,0.00350020104088,-0.000868487758214,0.199601382017,-9.76483535767,0.552882313728
1560244957720738888,-0.00355829484761,0.00350020104088,-0.00115955269621,0.200890660286,-9.80508804321,0.513275027275
1560244957724599361,-0.00355829484761,0.00350020104088,-0.00145052771435,0.240632474422,-9.78532028198,0.49231800437
1560244957728462219,-0.00355829484761,0.00350020104088,-0.00174168249683,0.201220870018,-9.78544712067,0.473271876574
1560244957732322693,-0.00355829484761,0.00323048807429,-0.00176283356268,0.180058062077,-9.76497936249,0.533391475677
1560244957736184359,-0.00355829484761,0.00293954294025,-0.00176283356268,0.181027650833,-9.7852678299,0.493652194738
1560244957740044832,-0.00355829484761,0.00264868768906,-0.00176283356268,0.180707961321,-9.76530265808,0.49352028966
1560244957742795706,-0.00355829484761,0.00244143170042,-0.00176283356268,0.180702701211,-9.78510665894,0.513587832451
1560244957743906736,-0.00355829484761,0.00235772462366,-0.00176283356268,0.160509482026,-9.78492641449,0.533968091011
1560244957747768402,-0.00355829484761,0.00206677948962,-0.00176283356268,0.180377751589,-9.7849445343,0.533523440361
1560244957751629829,-0.00355829484761,0.00177585236229,-0.00176283356268,0.160834431648,-9.78508853912,0.514032542706
1560244957755490780,-0.00355829484761,0.00175487168599,-0.00176283356268,0.160834431648,-9.78508853912,0.514032542706
1560244957759352207,-0.00355829484761,0.00175487168599,-0.00176283356268,0.160504221916,-9.80472946167,0.554035663605
1560244957763213873,-0.00355829484761,0.00175487168599,-0.00176283356268,0.139346674085,-9.76445865631,0.594087719917
1560244957767075539,-0.00355829484761,0.00175487168599,-0.00176283356268,0.140321522951,-9.76494312286,0.534280955791
1560244957770937204,-0.00355829484761,0.00175487168599,-0.00176283356268,0.159859582782,-9.7846031189,0.573839306831
1560244957776360035,-0.00346062527043,0.00165720210993,-0.00166516398306,0.179413422942,-9.74485397339,0.553195118904
1560244957779042244,-0.00325845733704,0.00145503417886,-0.00146299604461,0.180383011699,-9.76514148712,0.513455867767
1560244957780231476,-0.00316882055789,0.00136539740074,-0.00137335926322,0.179727852345,-9.78462123871,0.573394536972
1560244957784102440,-0.00287705179859,0.00107362864478,-0.00108159049662,0.160179272294,-9.80456733704,0.573971271515
1560244957787973881,-0.00258524708605,0.000781823935586,-0.000789785776782,0.179733112454,-9.76481819153,0.553327083588
1560244957791845322,-0.00229344237351,0.00049001922639,-0.000497981056942,0.160514742136,-9.76512336731,0.513900637627
1560244957795716524,-0.00200165567527,0.000198232531502,-0.00020619435141,0.200890660286,-9.80508804321,0.513275027275
1560244957799587727,-0.00191606019288,-9.35521174083e-05,-1.75042805495e-05,0.220764189959,-9.78530311584,0.492762714624
1560244957803458929,-0.00220784088053,-0.000385332808396,-1.75042805495e-05,0.199601382017,-9.76483535767,0.552882313728
1560244957807330370,-0.0024996395821,-0.000677131513319,-1.75042805495e-05,0.220114290714,-9.78497982025,0.532633900642
1560244957811201572,-0.00279142026975,-0.000968912204307,-1.75042805495e-05,0.221083879471,-9.80526733398,0.492894649506
1560244957815072775,-0.00308320103276,-0.00126069297067,-1.75042805495e-05,0.240627169609,-9.80512332916,0.512385487556
1560244957815297842,-0.00310016480888,-0.00127765674698,-1.75042805495e-05,0.180702701211,-9.78510665894,0.513587832451
1560244957818943977,-0.0033749817204,-0.00155247366165,-1.75042805495e-05,0.200895920396,-9.78528499603,0.493207454681
1560244957822815418,-0.0036667379929,-0.00195267308877,-1.75042805495e-05,0.200570970774,-9.78512382507,0.513143062592
1560244957826686621,-0.00395840463945,-0.00253600640133,-1.75042805495e-05,0.200570970774,-9.78512382507,0.513143062592
1560244957830557823,-0.00425007121065,-0.00311933956319,-1.75042805495e-05,0.180052801967,-9.78478336334,0.553458988667
1560244957834429264,-0.00454175578875,-0.00370270873884,-1.75042805495e-05,0.199921071529,-9.78480052948,0.553014278412
1560244957838300467,-0.0048334224353,-0.00428604205139,-1.75042805495e-05,0.181027650833,-9.7852678299,0.493652194738
1560244957842171669,-0.00512508900651,-0.00486937521326,-1.75042805495e-05,0.181027650833,-9.7852678299,0.493652194738
1560244957846042871,-0.00541680100438,-0.00511326845093,-1.75042805495e-05,0.180383011699,-9.76514148712,0.513455867767
1560244957849915266,-0.00570867461084,-0.00482139480553,-1.75042805495e-05,0.161154121161,-9.80505275726,0.514164447784
1560244957851544380,-0.00583146564289,-0.0046986037571,-1.75042805495e-05,0.160839691758,-9.76528453827,0.493964999914
1560244957853786469,-0.00600045837282,-0.00452961100462,-1.75042805495e-05,0.159225463867,-9.72487163544,0.55350792408
1560244957857656717,-0.00629217015369,-0.00423789918484,-1.75042805495e-05,0.160834431648,-9.78508853912,0.514032542706
1560244957861527205,-0.00658390002405,-0.00394616927556,-1.75042805495e-05,0.140321522951,-9.76494312286,0.534280955791
1560244957865399361,-0.0068757556164,-0.00365431364428,-1.75042805495e-05,0.180383011699,-9.76514148712,0.513455867767
1560244957869269609,-0.00693043802861,-0.00336260062498,-1.75042805495e-05,0.179733112454,-9.76481819153,0.553327083588
1560244957873140812,-0.006638651255,-0.00307081387083,-1.75042805495e-05,0.180377751589,-9.7849445343,0.533523440361
1560244957878362656,-0.0062450617137,-0.00267722435579,-1.75042805495e-05,0.180707961321,-9.76530265808,0.49352028966
1560244957882241488,-0.00595269991437,-0.00238486257596,-1.75042805495e-05,0.180702701211,-9.78510665894,0.513587832451
1560244957886120081,-0.00566035612935,-0.00209251881044,-1.75042805495e-05,0.181032910943,-9.76546478271,0.473584681749
1560244957887800217,-0.00553371811459,-0.00196588080412,-1.75042805495e-05,0.161154121161,-9.80505275726,0.514164447784
1560244957889997959,-0.00536806623651,-0.00180022893708,-1.75042805495e-05,0.200901180506,-9.76548194885,0.473139941692
1560244957893876791,-0.00530362408608,-0.00150796332324,-1.75042805495e-05,0.161484330893,-9.78541183472,0.474161326885
1560244957897755623,-0.00530362408608,-0.00121572489944,-1.75042805495e-05,0.201220870018,-9.78544712067,0.473271876574
1560244957901634216,-0.00530362408608,-0.000923504482336,-1.75042805495e-05,0.200570970774,-9.78512382507,0.513143062592
1560244957905513287,-0.00530362408608,-0.000631248051825,-1.75042805495e-05,0.200251281261,-9.76515865326,0.513011157513
1560244957909391880,-0.00530362408608,-0.000339027634723,-1.75042805495e-05,0.181032910943,-9.76546478271,0.473584681749
1560244957913270712,-0.00530362408608,-4.67892109171e-05,-1.75042805495e-05,0.201220870018,-9.78544712067,0.473271876574
1560244957917150497,-0.00530362408608,9.54246752372e-06,-1.75042805495e-05,0.200570970774,-9.78512382507,0.513143062592
1560244957921029329,-0.00530362408608,9.54246752372e-06,-1.75042805495e-05,0.181032910943,-9.76546478271,0.473584681749
1560244957924046516,-0.00530362408608,9.54246752372e-06,-1.75042805495e-05,0.180383011699,-9.76514148712,0.513455867767
1560244957924907923,-0.00530362408608,9.54246752372e-06,-1.75042805495e-05,0.181027650833,-9.7852678299,0.493652194738
1560244957928786755,-0.00530362408608,9.54246752372e-06,-1.75042805495e-05,0.181677550077,-9.78559112549,0.453781038523
1560244957932665586,-0.00530362408608,9.54246752372e-06,-1.75042805495e-05,0.18199723959,-9.80555534363,0.453912943602
1560244957936544418,-0.00530362408608,9.54246752372e-06,-1.75042805495e-05,0.180707961321,-9.76530265808,0.49352028966
1560244957940423012,-0.00530362408608,9.54246752372e-06,-1.75042805495e-05,0.180383011699,-9.76514148712,0.513455867767
1560244957944301128,-0.00530362408608,9.54246752372e-06,-1.75042805495e-05,0.180068582296,-9.7253742218,0.493256419897
1560244957948179722,-0.00530362408608,9.54246752372e-06,-1.75042805495e-05,0.160514742136,-9.76512336731,0.513900637627
1560244957952058554,-0.00530362408608,9.54246752372e-06,-1.75042805495e-05,0.201220870018,-9.78544712067,0.473271876574
1560244957955937147,-0.00530362408608,9.54246752372e-06,-1.75042805495e-05,0.181352600455,-9.78542995453,0.473716616631
1560244957959815264,-0.00530362408608,9.54246752372e-06,-1.75042805495e-05,0.160514742136,-9.76512336731,0.513900637627
1560244957960293293,-0.00530362408608,9.54246752372e-06,-1.75042805495e-05,0.160834431648,-9.78508853912,0.514032542706
1560244957963693857,-0.00530362408608,9.54246752372e-06,-1.75042805495e-05,0.161154121161,-9.80505275726,0.514164447784
1560244957967572689,-0.00530362408608,9.54246752372e-06,-1.75042805495e-05,0.181027650833,-9.7852678299,0.493652194738
1560244957971451521,-0.00530362408608,9.54246752372e-06,-1.75042805495e-05,0.181027650833,-9.7852678299,0.493652194738
1560244957975331306,-0.00530362408608,9.54246752372e-06,-1.75042805495e-05,0.180702701211,-9.78510665894,0.513587832451
1560244957980342388,-0.00530362408608,9.54246752372e-06,-1.75042805495e-05,0.181027650833,-9.7852678299,0.493652194738
1560244957984226704,-0.00530362408608,9.54246752372e-06,-1.75042805495e-05,0.180707961321,-9.76530265808,0.49352028966
1560244957988112211,-0.00530362408608,9.54246752372e-06,-1.75042805495e-05,0.181677550077,-9.78559112549,0.453781038523
1560244957991996765,-0.00530362408608,9.54246752372e-06,-1.75042805495e-05,0.200576230884,-9.76531982422,0.493075549603
1560244957995881319,-0.00530362408608,9.54246752372e-06,-1.75042805495e-05,0.181032910943,-9.76546478271,0.473584681749
1560244957996539831,-0.00530362408608,9.54246752372e-06,-1.75042805495e-05,0.16116464138,-9.7654466629,0.474029421806
1560244957999765873,-0.00530362408608,9.54246752372e-06,-1.75042805495e-05,0.200570970774,-9.78512382507,0.513143062592
1560244958003650427,-0.00530362408608,9.54246752372e-06,-1.75042805495e-05,0.201220870018,-9.78544712067,0.473271876574
1560244958007534981,-0.0052370261795,9.54246752372e-06,-1.75042805495e-05,0.201215609908,-9.80524921417,0.493339389563
1560244958011419535,-0.00494423610141,9.54246752372e-06,-1.75042805495e-05,0.181677550077,-9.78559112549,0.453781038523
1560244958015305042,-0.00465137419295,9.54246752372e-06,-1.75042805495e-05,0.181672289968,-9.80539417267,0.473848521709
1560244958019189358,-0.0043586020536,9.54246752372e-06,-1.75042805495e-05,0.200901180506,-9.76548194885,0.473139941692
1560244958023074865,-0.00406574014514,9.54246752372e-06,-1.75042805495e-05,0.200901180506,-9.76548194885,0.473139941692
1560244958026960373,-0.00377287816131,9.54246752372e-06,-1.75042805495e-05,0.182002484798,-9.78575229645,0.433845430613
1560244958030844927,-0.00355829484761,9.54246752372e-06,-1.75042805495e-05,0.182316929102,-9.82552051544,0.454044878483
1560244958032786131,-0.00355829484761,9.54246752372e-06,-1.75042805495e-05,0.180377751589,-9.7849445343,0.533523440361
1560244958034729481,-0.00355829484761,9.54246752372e-06,-1.75042805495e-05,0.180383011699,-9.76514148712,0.513455867767
1560244958038614035,-0.00355829484761,9.54246752372e-06,-1.75042805495e-05,0.181672289968,-9.80539417267,0.473848521709
1560244958042498589,-0.00355829484761,9.54246752372e-06,-1.75042805495e-05,0.181027650833,-9.7852678299,0.493652194738
1560244958046383142,-0.00355829484761,9.54246752372e-06,-1.75042805495e-05,0.180702701211,-9.78510665894,0.513587832451
1560244958050267696,-0.00355829484761,9.54246752372e-06,-1.75042805495e-05,0.160514742136,-9.76512336731,0.513900637627
1560244958054152012,-0.00346874792142,9.54246752372e-06,-1.75042805495e-05,0.200895920396,-9.78528499603,0.493207454681
1560244958058036566,-0.00317607236836,9.54246752372e-06,-1.75042805495e-05,0.160189792514,-9.76496124268,0.533836245537
1560244958061921120,-0.00288339681529,9.54246752372e-06,-1.75042805495e-05,0.200256541371,-9.74535560608,0.492943614721
1560244958065805674,-0.00259072126223,9.54246752372e-06,-1.75042805495e-05,0.181672289968,-9.80539417267,0.473848521709
1560244958069041967,-0.00234688790487,9.54246752372e-06,-1.75042805495e-05,0.180058062077,-9.76497936249,0.533391475677
1560244958069690228,-0.00229804570916,9.54246752372e-06,-1.75042805495e-05,0.180707961321,-9.76530265808,0.49352028966
1560244958073574781,-0.00200537023144,9.54246752372e-06,-1.75042805495e-05,0.180058062077,-9.76497936249,0.533391475677
1560244958078446627,-0.00359665567908,8.62641325944e-05,-5.58651129849e-05,0.200570970774,-9.78512382507,0.513143062592
1560244958082336664,-0.00358949440603,7.19415861015e-05,-4.87038397571e-05,0.180052801967,-9.78478336334,0.553458988667
1560244958086225748,-0.00358233488739,5.7622548415e-05,-4.15443209325e-05,0.200246021152,-9.78496170044,0.533078670502
1560244958090114117,-0.00357517668501,4.33061432538e-05,-3.43861183705e-05,0.16116464138,-9.7654466629,0.474029421806
1560244958094003201,-0.00356801716636,2.89871055673e-05,-2.72265995459e-05,0.181027650833,-9.7852678299,0.493652194738
1560244958097892284,-0.00356085764956,1.46680715627e-05,-2.00670825623e-05,0.181352600455,-9.78542995453,0.473716616631
1560244958101780415,-0.00337023924626,9.54246752372e-06,-0.000205559886605,0.201220870018,-9.78544712067,0.473271876574
1560244958105288506,-0.0031059304157,9.54246752372e-06,-0.000469868723768,0.180377751589,-9.7849445343,0.533523440361
1560244958105670691,-0.00307713558957,9.54246752372e-06,-0.000498663550621,0.180707961321,-9.76530265808,0.49352028966
1560244958109558821,-0.00278419361819,9.54246752372e-06,-0.000791605529332,0.181032910943,-9.76546478271,0.473584681749
1560244958113447905,-0.00249117976993,9.54246752372e-06,-0.00108461938492,0.180377751589,-9.7849445343,0.533523440361
1560244958117337227,-0.00219814799012,9.54246752372e-06,-0.00137765117206,0.200570970774,-9.78512382507,0.513143062592
1560244958121226311,-0.00190513414186,9.54246752372e-06,-0.00167066502765,0.180052801967,-9.78478336334,0.553458988667
1560244958125115395,-0.00201389157183,-0.000191383497472,-0.00176283356268,0.181352600455,-9.78542995453,0.473716616631
1560244958129004717,-0.00230704101522,-0.000484532944225,-0.00176283356268,0.181027650833,-9.7852678299,0.493652194738
1560244958132893801,-0.00260017251986,-0.00077766445223,-0.00176283356268,0.180383011699,-9.76514148712,0.513455867767
1560244958136782885,-0.00289330402451,-0.00107079596024,-0.00176283356268,0.180702701211,-9.78510665894,0.513587832451
1560244958140672207,-0.0031864534679,-0.00136394540699,-0.00176283356268,0.160514742136,-9.76512336731,0.513900637627
1560244958141525745,-0.00325078709459,-0.00142827903441,-0.00176283356268,0.16115938127,-9.78524971008,0.494096934795
1560244958144562244,-0.00347965680291,-0.00165714874536,-0.00176283356268,0.181022390723,-9.80507087708,0.51371973753
1560244958148451328,-0.00355829484761,-0.00152129332855,-0.00154834009737,0.181027650833,-9.7852678299,0.493652194738
1560244958152341604,-0.00355829484761,-0.00122807197606,-0.0012551187409,0.180052801967,-9.78478336334,0.553458988667
1560244958156231642,-0.00355829484761,-0.000934868562317,-0.000961915323186,0.180377751589,-9.7849445343,0.533523440361
1560244958160120964,-0.00355829484761,-0.000641719115564,-0.000668765872461,0.181022390723,-9.80507087708,0.51371973753
1560244958164011002,-0.00355829484761,-0.00034851570182,-0.000375562454744,0.160834431648,-9.78508853912,0.514032542706
1560244958167900085,-0.00355829484761,-5.53842691876e-05,-8.24310181405e-05,0.180383011699,-9.76514148712,0.513455867767
1560244958171790361,-0.00355829484761,9.54246752372e-06,-1.75042805495e-05,0.180377751589,-9.7849445343,0.533523440361
1560244958175679445,-0.00355829484761,9.54246752372e-06,-1.75042805495e-05,0.160514742136,-9.76512336731,0.513900637627
1560244958177772284,-0.00355829484761,9.54246752372e-06,-1.75042805495e-05,0.180052801967,-9.78478336334,0.553458988667
1560244958180433989,-0.00355829484761,9.54246752372e-06,-1.75042805495e-05,0.160504221916,-9.80472946167,0.554035663605
1560244958184327126,-0.00355829484761,9.54246752372e-06,-1.75042805495e-05,0.180377751589,-9.7849445343,0.533523440361
1560244958188220024,-0.00355829484761,9.54246752372e-06,-1.75042805495e-05,0.180377751589,-9.7849445343,0.533523440361
1560244958192112684,-0.00354358306738,9.54246752372e-06,-1.75042805495e-05,0.160509482026,-9.78492641449,0.533968091011
1560244958196005821,-0.00325026385541,9.54246752372e-06,-1.75042805495e-05,0.181352600455,-9.78542995453,0.473716616631
1560244958199898720,-0.00295696257499,9.54246752372e-06,-1.75042805495e-05,0.181027650833,-9.7852678299,0.493652194738
1560244958203791618,-0.0026636613699,9.54246752372e-06,-1.75042805495e-05,0.180383011699,-9.76514148712,0.513455867767
1560244958207684278,-0.00237037809637,9.54246752372e-06,-1.75042805495e-05,0.180063322186,-9.74517726898,0.513323962688
1560244958211577415,-0.0020770588844,9.54246752372e-06,-1.75042805495e-05,0.201220870018,-9.78544712067,0.473271876574
1560244958214018822,-0.0018931168404,9.54246752372e-06,-1.75042805495e-05,0.200895920396,-9.78528499603,0.493207454681
1560244958215470314,-0.00181296560913,3.8762200492e-05,-1.75042805495e-05,0.180697441101,-9.80490875244,0.533655285835
1560244958219363928,-0.00181296560913,0.000332235140969,-1.75042805495e-05,0.180697441101,-9.80490875244,0.533655285835
1560244958223257065,-0.00181296560913,0.000625672128577,-1.75042805495e-05,0.201215609908,-9.80524921417,0.493339389563
1560244958227149963,-0.00181296560913,0.000919091102064,-1.75042805495e-05,0.180702701211,-9.78510665894,0.513587832451
1560244958231043816,-0.00181296560913,0.00121258205666,-1.75042805495e-05,0.160514742136,-9.76512336731,0.513900637627
1560244958234936714,-0.00181296560913,0.00150600103015,-1.75042805495e-05,0.180058062077,-9.76497936249,0.533391475677
1560244958238829613,-0.00345551987693,0.00175487168599,-0.000120279253801,0.180388271809,-9.74533843994,0.493388354778
1560244958242722511,-0.00347324332786,0.00175487168599,-0.000102555802429,0.200251281261,-9.76515865326,0.513011157513
1560244958246615171,-0.00349096569523,0.00175487168599,-8.4833434616e-05,0.200570970774,-9.78512382507,0.513143062592
1560244958250274420,-0.00350762539709,0.00175487168599,-6.81737323307e-05,0.160834431648,-9.78508853912,0.514032542706
1560244958250507355,-0.00350868589548,0.00175487168599,-6.71132339191e-05,0.180702701211,-9.78510665894,0.513587832451
1560244958254400253,-0.00352640934641,0.00175487168599,-4.93897825478e-05,0.160189792514,-9.76496124268,0.533836245537
1560244958258292913,-0.00354413171378,0.00175487168599,-3.16674147346e-05,0.180377751589,-9.7849445343,0.533523440361
1560244958262185812,-0.00355829484761,9.54246752372e-06,-1.75042805495e-05,0.160509482026,-9.78492641449,0.533968091011
1560244958266078949,-0.00530362408608,9.54246752372e-06,-1.75042805495e-05,0.200576230884,-9.76531982422,0.493075549603
1560244958269971609,-0.00530362408608,9.54246752372e-06,-1.75042805495e-05,0.180383011699,-9.76514148712,0.513455867767
1560244958273864508,-0.00487549269943,0.00175487168599,-1.75042805495e-05,0.180383011699,-9.76514148712,0.513455867767
1560244958278528690,-0.00355829484761,0.00175487168599,-1.75042805495e-05,0.180383011699,-9.76514148712,0.513455867767
1560244958282424688,-0.00355829484761,9.54246752372e-06,-1.75042805495e-05,0.181032910943,-9.76546478271,0.473584681749
1560244958286320686,-0.0036906362106,9.54246752372e-06,-1.75042805495e-05,0.200895920396,-9.78528499603,0.493207454681
1560244958286520958,-0.00355829484761,9.54246752372e-06,-1.75042805495e-05,0.180702701211,-9.78510665894,0.513587832451
1560244958290216684,-0.00444442095533,9.54246752372e-06,-1.75042805495e-05,0.181352600455,-9.78542995453,0.473716616631
1560244958294112921,-0.00530362408608,0.000137147908642,-0.000145109726323,0.199931591749,-9.74519443512,0.512879252434
1560244958298008919,-0.00418867339263,0.00286982245381,-0.00176283356268,0.181032910943,-9.76546478271,0.473584681749
1560244958301906109,-0.00181296560913,0.00314314076381,-0.00176283356268,0.200576230884,-9.76531982422,0.493075549603
1560244958305800915,-0.00315662030353,0.00175487168599,-0.000419178834674,0.161154121161,-9.80505275726,0.514164447784
1560244958309696913,-0.00588874520915,0.00175487168599,-1.75042805495e-05,0.181032910943,-9.76546478271,0.473584681749
1560244958313592911,-0.00547728790914,0.00332653720624,-1.75042805495e-05,0.180707961321,-9.76530265808,0.49352028966
1560244958317490101,-0.00448907024198,0.00524553004652,-1.75042805495e-05,0.181672289968,-9.80539417267,0.473848521709
1560244958321386099,-0.00181296560913,0.00518967134773,-1.75042805495e-05,0.18199723959,-9.80555534363,0.453912943602
1560244958322776794,-0.00181296560913,0.00421415380307,-1.75042805495e-05,0.180702701211,-9.78510665894,0.513587832451
1560244958325282097,-0.00181296560913,0.00350020104088,-1.75042805495e-05,0.181027650833,-9.7852678299,0.493652194738
1560244958329178095,-0.00248770814547,0.00282545848591,-1.75042805495e-05,0.161489591002,-9.76560783386,0.454093843699
1560244958333074093,-0.00308439296365,0.00524553004652,-0.00176283356268,0.180383011699,-9.76514148712,0.513455867767
1560244958336969852,-0.00530362408608,0.0029871052698,-1.75042805495e-05,0.16115938127,-9.78524971008,0.494096934795
1560244958340865850,-0.0038036877762,0.00175487168599,-1.75042805495e-05,0.180388271809,-9.74533843994,0.493388354778
1560244958344761848,-0.00355829484761,0.00175487168599,-1.75042805495e-05,0.180707961321,-9.76530265808,0.49352028966
1560244958348657846,-0.00355829484761,0.00175487168599,-1.75042805495e-05,0.180383011699,-9.76514148712,0.513455867767
1560244958352555037,-0.00530362408608,0.00175487168599,-0.000791794118625,0.180707961321,-9.76530265808,0.49352028966
1560244958356451035,-0.00530362408608,9.54246752372e-06,-1.75042805495e-05,0.181352600455,-9.78542995453,0.473716616631
1560244958360347986,-0.00530362408608,0.0024103101816,-1.75042805495e-05,0.181347340345,-9.80523204803,0.49378412962
1560244958364243984,-0.00530362408608,0.00394221933072,-0.000459522640415,0.16115938127,-9.78524971008,0.494096934795
1560244958368140936,-0.00244450058512,0.00381596848675,-0.000333271776441,0.181347340345,-9.80523204803,0.49378412962
1560244958372036934,-0.000739109919397,0.00282872745631,-1.75042805495e-05,0.180707961321,-9.76530265808,0.49352028966
1560244958375931978,-0.00347053507438,0.00175487168599,-0.00167507378725,0.180702701211,-9.78510665894,0.513587832451
1560244958379827976,-0.00530362408608,9.54246752372e-06,-0.00176283356268,0.180707961321,-9.76530265808,0.49352028966
1560244958383724928,-0.00516220584065,-0.00187720502696,-0.00162141531371,0.181352600455,-9.78542995453,0.473716616631
1560244958387620926,-0.00355829484761,-0.00235290648608,-0.00114571381096,0.181672289968,-9.80539417267,0.473848521709
1560244958391516924,-0.00318802258496,-0.00136551452407,-0.00176283356268,0.181347340345,-9.80523204803,0.49378412962
1560244958395412922,-0.00181296560913,9.54246752372e-06,-0.00311988490272,0.181032910943,-9.76546478271,0.473584681749
1560244958399309158,-0.00181296560913,0.00175487168599,-0.00290933449846,0.201226130128,-9.76564311981,0.453204363585
1560244958403205156,-0.00339876156748,0.000169075745827,-0.000177037564672,0.181352600455,-9.78542995453,0.473716616631
1560244958407101154,-0.00264049241533,9.54246752372e-06,-1.75042805495e-05,0.181352600455,-9.78542995453,0.473716616631
1560244958410997152,-0.00355829484761,9.54246752372e-06,-1.75042805495e-05,0.181352600455,-9.78542995453,0.473716616631
1560244958414893150,-0.00355829484761,0.00106533597663,-1.75042805495e-05,0.180707961321,-9.76530265808,0.49352028966
1560244958418789148,-0.00355829484761,0.00320237334744,-0.000613159615281,0.180377751589,-9.7849445343,0.533523440361
1560244958422686100,-0.00355829484761,0.000469447083708,-0.00222273815346,0.181027650833,-9.7852678299,0.493652194738
1560244958426582098,-0.00408530349198,9.54246752372e-06,-0.00176283356268,0.181027650833,-9.7852678299,0.493652194738
1560244958430478096,-0.00530362408608,9.54246752372e-06,-0.00176283356268,0.180388271809,-9.74533843994,0.493388354778
1560244958434374094,-0.00530362408608,9.54246752372e-06,-0.00350816268474,0.180707961321,-9.76530265808,0.49352028966
1560244958438270092,-0.00530362408608,9.54246752372e-06,-0.00176550937746,0.180383011699,-9.76514148712,0.513455867767
1560244958442166090,-0.00431928487258,-0.000974796757262,-1.75042805495e-05,0.180702701211,-9.78510665894,0.513587832451
1560244958446062088,-0.00181296560913,-0.00173578679096,-1.75042805495e-05,0.180702701211,-9.78510665894,0.513587832451
1560244958449958086,-0.00181296560913,-0.0005231207236,-1.75042805495e-05,0.181352600455,-9.78542995453,0.473716616631
1560244958453854084,-0.00530362408608,0.000918564632045,-0.000472015361626,0.160514742136,-9.76512336731,0.513900637627
1560244958457750082,-0.00530362408608,0.00350020104088,-0.00320428520814,0.181352600455,-9.78542995453,0.473716616631
1560244958461645126,-0.00355829484761,0.00281774760629,-0.00282570934119,0.181027650833,-9.7852678299,0.493652194738
1560244958465541124,-0.00355829484761,0.00175487168599,-9.34317749293e-05,0.180377751589,-9.7849445343,0.533523440361
1560244958469437122,-0.00355829484761,0.00175487168599,-1.75042805495e-05,0.180058062077,-9.76497936249,0.533391475677
1560244958473333120,-0.00515083920772,9.54246752372e-06,-0.000170289162729,0.200246021152,-9.78496170044,0.533078670502
1560244958477229118,-0.00241882271999,9.54246752372e-06,-0.00176283356268,0.180707961321,-9.76530265808,0.49352028966
1560244958481125116,-0.00181296560913,0.00039083648725,-0.00138153952905,0.201220870018,-9.78544712067,0.473271876574
1560244958485021114,-0.00318116580812,0.00175487168599,-1.75042805495e-05,0.180702701211,-9.78510665894,0.513587832451
1560244958488918066,-0.00355829484761,0.00175487168599,-1.75042805495e-05,0.180707961321,-9.76530265808,0.49352028966
1560244958492814064,-0.00196063982989,0.00175487168599,-1.75042805495e-05,0.200570970774,-9.78512382507,0.513143062592
1560244958496710062,-0.00181296560913,0.00175487168599,-1.75042805495e-05,0.180707961321,-9.76530265808,0.49352028966
1560244958500606060,-0.00355829484761,0.0018357779386,-0.00176283356268,0.180702701211,-9.78510665894,0.513587832451
1560244958504502058,-0.00355829484761,0.00350020104088,-0.00176283356268,0.200570970774,-9.78512382507,0.513143062592
1560244958508398056,-0.00355829484761,0.0028821955221,-1.75042805495e-05,0.16115938127,-9.78524971008,0.494096934795
1560244958512295008,-0.00485525050472,9.54246752372e-06,-1.75042805495e-05,0.180702701211,-9.78510665894,0.513587832451
1560244958516191006,-0.00530362408608,9.54246752372e-06,-0.00122453533024,0.181352600455,-9.78542995453,0.473716616631
1560244958520087004,-0.00530362408608,9.54246752372e-06,-1.75042805495e-05,0.161484330893,-9.78541183472,0.474161326885
1560244958523983240,-0.00530362408608,9.54246752372e-06,-0.00176283356268,0.16115938127,-9.78524971008,0.494096934795
1560244958527879238,-0.00530362408608,9.54246752372e-06,-0.00176283356268,0.180377751589,-9.7849445343,0.533523440361
1560244958531775236,-0.00530362408608,9.54246752372e-06,-0.000767007433511,0.180058062077,-9.76497936249,0.533391475677
1560244958535670280,-0.00530362408608,9.54246752372e-06,-1.75042805495e-05,0.16115938127,-9.78524971008,0.494096934795
1560244958539566278,-0.00530362408608,9.54246752372e-06,-1.75042805495e-05,0.180063322186,-9.74517726898,0.513323962688
1560244958543460846,-0.0048394070141,-0.00173578679096,-1.75042805495e-05,0.181027650833,-9.7852678299,0.493652194738
1560244958547357082,-0.00355829484761,-0.000284105024109,-1.75042805495e-05,0.199921071529,-9.78480052948,0.553014278412
1560244958551253080,-0.0042514431445,0.00244802002911,-1.75042805495e-05,0.180377751589,-9.7849445343,0.533523440361
1560244958555149078,-0.00530362408608,0.00350020104088,-1.75042805495e-05,0.16115938127,-9.78524971008,0.494096934795
1560244958559045076,-0.00355829484761,0.00350020104088,-1.75042805495e-05,0.180697441101,-9.80490875244,0.533655285835
1560244958562941074,-0.00355829484761,0.00350020104088,-0.00176283356268,0.200570970774,-9.78512382507,0.513143062592
1560244958566837072,-0.00470880385916,0.00234969195258,-0.000612324522345,0.180707961321,-9.76530265808,0.49352028966
1560244958570733070,-0.00569559976535,9.54246752372e-06,-1.75042805495e-05,0.180702701211,-9.78510665894,0.513587832451
1560244958574629068,-0.00704895332456,9.54246752372e-06,-1.75042805495e-05,0.180058062077,-9.76497936249,0.533391475677
1560244958578525066,-0.00642838098492,9.54246752372e-06,-0.00238340586093,0.180702701211,-9.78510665894,0.513587832451
1560244958582422018,-0.00530362408608,0.00161746527742,-0.00350816268474,0.160514742136,-9.76512336731,0.513900637627
1560244958586318016,-0.00355829484761,0.00265019522212,-0.000912827779353,0.160520002246,-9.74532032013,0.493833094835
1560244958590214014,-0.00355829484761,0.00166356709257,-1.75042805495e-05,0.200256541371,-9.74535560608,0.492943614721
1560244958594110012,-0.00355829484761,0.00108773151853,-1.75042805495e-05,0.181027650833,-9.7852678299,0.493652194738
1560244958598005056,-0.00355829484761,0.00350020104088,-0.00144357022839,0.200570970774,-9.78512382507,0.513143062592
1560244958601901054,-0.00355829484761,0.00219400431678,-1.75042805495e-05,0.160189792514,-9.76496124268,0.533836245537
1560244958605797052,-0.00181296560913,-0.00053862155412,-1.75042805495e-05,0.181672289968,-9.80539417267,0.473848521709
1560244958609693050,-0.00334769161184,-0.00173578679096,-1.75042805495e-05,0.180383011699,-9.76514148712,0.513455867767
1560244958613589048,-0.00355829484761,-0.000959026106326,-1.75042805495e-05,0.200890660286,-9.80508804321,0.513275027275
1560244958617485046,-0.00181296560913,2.760437493e-05,-1.75042805495e-05,0.16116464138,-9.7654466629,0.474029421806
1560244958621380091,-0.0028174370535,0.00175487168599,-1.75042805495e-05,0.181027650833,-9.7852678299,0.493652194738
1560244958625276089,-0.00355829484761,-0.000236375279749,-1.75042805495e-05,0.180058062077,-9.76497936249,0.533391475677
1560244958629172087,-0.00355829484761,-0.00173578679096,-1.75042805495e-05,0.180388271809,-9.74533843994,0.493388354778
1560244958633068085,-0.00355829484761,-0.00173578679096,-1.75042805495e-05,0.181352600455,-9.78542995453,0.473716616631
1560244958636963129,-0.00501917408451,-0.00027490753731,-1.75042805495e-05,0.181027650833,-9.7852678299,0.493652194738
1560244958640859127,-0.00355829484761,0.00175487168599,-0.000720182490628,0.180707961321,-9.76530265808,0.49352028966
1560244958644755125,-0.00186881895034,0.00175487168599,-0.00176283356268,0.160834431648,-9.78508853912,0.514032542706
1560244958648650169,-0.00274355116465,9.54246752372e-06,-0.000832247983888,0.181032910943,-9.76546478271,0.473584681749
1560244958652546167,-0.00373055314625,0.000181800764196,-1.75042805495e-05,0.180383011699,-9.76514148712,0.513455867767
1560244958656442165,-0.00530362408608,0.00291402288179,-1.75042805495e-05,0.220119550824,-9.76517677307,0.512566447258
1560244958660338163,-0.00490290074495,0.00350020104088,-1.75042805495e-05,0.140651732683,-9.74530220032,0.494277834892
1560244958664234161,-0.00355829484761,0.00350020104088,-1.75042805495e-05,0.14161606133,-9.7853937149,0.474606096745
1560244958668130159,-0.00181296560913,0.0011254497721,-1.75042805495e-05,0.16116464138,-9.7654466629,0.474029421806
1560244958672026157,-0.00181296560913,-0.00160685599491,-1.75042805495e-05,0.180383011699,-9.76514148712,0.513455867767
1560244958675923109,-0.00181296560913,-0.00262283409808,-0.000875786174208,0.181027650833,-9.7852678299,0.493652194738
1560244958679818153,-0.00191259331942,9.54246752372e-06,-0.00176283356268,0.160844951868,-9.74548244476,0.473897486925
1560244958683714151,-0.00355829484761,9.54246752372e-06,-0.00176283356268,0.160839691758,-9.76528453827,0.493964999914
1560244958687610149,-0.00355829484761,9.54246752372e-06,-1.75042805495e-05,0.16116464138,-9.7654466629,0.474029421806
1560244958691506147,-0.00355829484761,9.54246752372e-06,-1.75042805495e-05,0.179738372564,-9.74501514435,0.533259510994
1560244958695402145,-0.00411516165916,9.54246752372e-06,-1.75042805495e-05,0.20154581964,-9.78560829163,0.453336298466
1560244958699298143,-0.00530362408608,9.54246752372e-06,-1.75042805495e-05,0.220764189959,-9.78530311584,0.492762714624
1560244958703194141,-0.00530362408608,9.54246752372e-06,-0.000803069691732,0.181027650833,-9.7852678299,0.493652194738
1560244958707090139,-0.00353121531001,9.54246752372e-06,-0.00176283356268,0.160844951868,-9.74548244476,0.473897486925
1560244958710985184,-0.00181296560913,9.54246752372e-06,-0.00074968601152,0.181027650833,-9.7852678299,0.493652194738
1560244958714881182,-0.00381338292794,0.000264630544935,-1.75042805495e-05,0.221408829093,-9.80542945862,0.472959041595
1560244958718778133,-0.00530362408608,0.00299747355466,-0.00126010609742,0.239993095398,-9.74539089203,0.492054134607
1560244958722673178,-0.00307518084074,0.00301708700179,-1.75042805495e-05,0.200251281261,-9.76515865326,0.513011157513
1560244958726569176,-0.00181296560913,0.00175487168599,-1.75042805495e-05,0.180377751589,-9.7849445343,0.533523440361
1560244958730465174,-0.00181296560913,0.00175487168599,-0.00176283356268,0.220439240336,-9.78514194489,0.512698292732
1560244958734360218,-0.00351098788268,0.00175487168599,-6.48112466649e-05,0.240312755108,-9.76535511017,0.492186069489
1560244958738256216,-0.00530362408608,0.00350020104088,-1.75042805495e-05,0.220444500446,-9.76533794403,0.492630809546
1560244958742152214,-0.00512175305136,0.00193674273285,-1.75042805495e-05,0.200890660286,-9.80508804321,0.513275027275
1560244958746049404,-0.00355829484761,0.00350020104088,-1.75042805495e-05,0.180702701211,-9.78510665894,0.513587832451
1560244958749945402,-0.00181296560913,0.00350020104088,-1.75042805495e-05,0.161809280515,-9.78557300568,0.45422577858
1560244958753841400,-0.00321059955784,0.00350020104088,-1.75042805495e-05,0.200570970774,-9.78512382507,0.513143062592
1560244958757737398,-0.00530362408608,0.00286073216811,-0.00176283356268,0.220764189959,-9.78530311584,0.492762714624
1560244958761633396,-0.0069299232294,0.000128572561314,-0.00176283356268,0.180707961321,-9.76530265808,0.49352028966
1560244958765529394,-0.00618072045809,0.00174600824842,-1.75042805495e-05,0.160509482026,-9.78492641449,0.533968091011
1560244958769425392,-0.00333891724055,0.00524553004652,-0.00012719308728,0.16115938127,-9.78524971008,0.494096934795
1560244958773321390,-6.76363852108e-05,0.00524553004652,-0.00176283356268,0.160509482026,-9.78492641449,0.533968091011
1560244958777217388,-0.000405933039297,0.00383849765266,-0.00142453689731,0.200570970774,-9.78512382507,0.513143062592
1560244958781113386,-0.00181296560913,0.00657074308513,-1.75042805495e-05,0.180707961321,-9.76530265808,0.49352028966
1560244958785009384,-0.00181296560913,0.00642407054353,-0.00176283356268,0.160839691758,-9.76528453827,0.493964999914
1560244958788905382,-0.00336663618539,0.00369185967753,-0.000209162947559,0.160520002246,-9.74532032013,0.493833094835
1560244958792801380,-0.00181296560913,0.00429555323929,-1.75042805495e-05,0.161484330893,-9.78541183472,0.474161326885
1560244958796697378,-0.00355829484761,0.00524553004652,-1.75042805495e-05,0.181022390723,-9.80507087708,0.51371973753
1560244958800593376,-0.00458232386665,0.00524553004652,-0.0010415333252,0.181352600455,-9.78542995453,0.473716616631
1560244958804489374,-0.00329267587493,0.0055111490192,-0.00176283356268,0.181352600455,-9.78542995453,0.473716616631
1560244958808385372,-0.00306531504436,0.00824320872023,-0.00176283356268,0.160189792514,-9.76496124268,0.533836245537
1560244958812280178,-0.00355829484761,0.00600356148619,-1.75042805495e-05,0.200256541371,-9.74535560608,0.492943614721
1560244958816177130,-0.00355829484761,0.00350020104088,-1.75042805495e-05,0.180058062077,-9.76497936249,0.533391475677
1560244958820073128,-0.00253570105236,0.00247760717742,-1.75042805495e-05,0.180702701211,-9.78510665894,0.513587832451
1560244958823970318,-0.00355829484761,0.00350020104088,-1.75042805495e-05,0.181027650833,-9.7852678299,0.493652194738
1560244958827866316,-0.00355829484761,0.00350020104088,-1.75042805495e-05,0.160509482026,-9.78492641449,0.533968091011
1560244958831763268,-0.00336371881115,0.00350020104088,-1.75042805495e-05,0.181027650833,-9.7852678299,0.493652194738
1560244958835658312,-0.00299346223947,0.00350020104088,-1.75042805495e-05,0.180383011699,-9.76514148712,0.513455867767
1560244958839554310,-0.00181296560913,0.0021772881016,-0.00176283356268,0.179738372564,-9.74501514435,0.533259510994
1560244958843450308,-0.00322217250954,0.00350020104088,-0.000353626627025,0.161479070783,-9.80521392822,0.494228869677
1560244958847346306,-0.00530362408608,9.54246752372e-06,-1.75042805495e-05,0.160839691758,-9.76528453827,0.493964999914
1560244958851242304,-0.00530362408608,9.54246752372e-06,-1.75042805495e-05,0.160514742136,-9.76512336731,0.513900637627
1560244958855138302,-0.00443756483706,0.00263414173409,-0.000883563551236,0.181352600455,-9.78542995453,0.473716616631
1560244958859035492,-0.00530362408608,0.00524553004652,-1.75042805495e-05,0.161484330893,-9.78541183472,0.474161326885
1560244958862931490,-0.00419475374263,0.00302778943358,-1.75042805495e-05,0.161484330893,-9.78541183472,0.474161326885
1560244958866827488,-0.00355829484761,9.54246752372e-06,-0.00141266371337,0.160189792514,-9.76496124268,0.533836245537
1560244958870724440,-0.00355829484761,9.54246752372e-06,-1.75042805495e-05,0.160839691758,-9.76528453827,0.493964999914
1560244958874620438,-0.00355829484761,-0.000570060100703,-1.75042805495e-05,0.161154121161,-9.80505275726,0.514164447784
1560244958878516436,-0.00355829484761,-0.00173578679096,-1.75042805495e-05,0.200570970774,-9.78512382507,0.513143062592
1560244958882413387,-0.00355829484761,0.000818577740862,-0.00257186879133,0.181347340345,-9.80523204803,0.49378412962
1560244958886309385,-0.00181296560913,0.00170469972097,-0.00350816268474,0.181352600455,-9.78542995453,0.473716616631
1560244958890205383,-0.00285059755212,9.54246752372e-06,-0.00143289884203,0.181027650833,-9.7852678299,0.493652194738
1560244958894102335,-0.00383792227405,-0.00173578679096,-1.75042805495e-05,0.180707961321,-9.76530265808,0.49352028966
1560244958897998333,-0.00530362408608,-0.00173578679096,-1.75042805495e-05,0.200256541371,-9.74535560608,0.492943614721
1560244958901895285,-0.00530362408608,-0.00122687154691,0.000491410944934,0.220119550824,-9.76517677307,0.512566447258
1560244958905791283,-0.00530362408608,9.54246752372e-06,0.00172782491427,0.181352600455,-9.78542995453,0.473716616631
1560244958909688234,-0.00530362408608,0.00175487168599,-1.75042805495e-05,0.200251281261,-9.76515865326,0.513011157513
1560244958913584232,-0.00530362408608,2.97692125021e-05,-1.75042805495e-05,0.200895920396,-9.78528499603,0.493207454681
1560244958917479277,-0.000846496178041,0.000976011895594,-0.00176283356268,0.200890660286,-9.80508804321,0.513275027275
1560244958921375275,-0.00181296560913,0.00350020104088,-0.00176283356268,0.180702701211,-9.78510665894,0.513587832451
1560244958925271273,-0.00300766659876,0.00350020104088,-0.000568132543165,0.181352600455,-9.78542995453,0.473716616631
1560244958929167271,-0.00312179488892,0.0013183717323,-1.75042805495e-05,0.180707961321,-9.76530265808,0.49352028966
1560244958933063269,-0.00181296560913,9.54246752372e-06,-1.75042805495e-05,0.199931591749,-9.74519443512,0.512879252434
1560244958936959267,-0.000732754956768,9.54246752372e-06,-0.00176283356268,0.180702701211,-9.78510665894,0.513587832451
1560244958940855265,-0.00181296560913,9.54246752372e-06,-0.000110947335045,0.181352600455,-9.78542995453,0.473716616631
1560244958944751263,-0.00355829484761,9.54246752372e-06,-1.75042805495e-05,0.200895920396,-9.78528499603,0.493207454681
1560244958948647261,-0.00530362408608,9.54246752372e-06,-1.75042805495e-05,0.160520002246,-9.74532032013,0.493833094835
1560244958952544451,-0.00530362408608,9.54246752372e-06,-1.75042805495e-05,0.180383011699,-9.76514148712,0.513455867767
1560244958956440449,-0.00530362408608,9.54246752372e-06,-1.75042805495e-05,0.181027650833,-9.7852678299,0.493652194738
1560244958960336447,-0.00530362408608,9.54246752372e-06,-1.75042805495e-05,0.179738372564,-9.74501514435,0.533259510994
1560244958964232445,-0.00530362408608,9.54246752372e-06,-1.75042805495e-05,0.181347340345,-9.80523204803,0.49378412962
1560244958968128443,-0.00530362408608,9.54246752372e-06,-1.75042805495e-05,0.180377751589,-9.7849445343,0.533523440361
1560244958972024441,-0.00530362408608,0.000831385404408,-1.75042805495e-05,0.180707961321,-9.76530265808,0.49352028966
1560244958975920439,-0.00530362408608,0.00175487168599,-8.10254748765e-05,0.180707961321,-9.76530265808,0.49352028966
1560244958979816437,-0.004253348955,0.000704596566943,-0.000712558405323,0.181027650833,-9.7852678299,0.493652194738
1560244958983712435,-0.00326626450913,0.00175487168599,-0.000309534626332,0.160839691758,-9.76528453827,0.493964999914
1560244958987609386,-0.00181296560913,0.00175487168599,-0.00304239571873,0.180702701211,-9.78510665894,0.513587832451
1560244958991505384,-0.00233434083394,0.00175487168599,-0.00473211669841,0.181032910943,-9.76546478271,0.473584681749
1560244958995402336,-0.00506731194337,0.0032638888824,-0.00199914568963,0.180383011699,-9.76514148712,0.513455867767
1560244958999298334,-0.00530362408608,0.00100462767439,-1.75042805495e-05,0.180058062077,-9.76497936249,0.533391475677
1560244959003194332,-0.00530362408608,9.54246752372e-06,-1.75042805495e-05,0.200251281261,-9.76515865326,0.513011157513
1560244959007090330,-0.00704895332456,0.000988572344054,-1.75042805495e-05,0.181352600455,-9.78542995453,0.473716616631
1560244959010987282,-0.00682788121015,0.00372127312579,-1.75042805495e-05,0.180383011699,-9.76514148712,0.513455867767
1560244959014883280,-0.00530362408608,0.00524553004652,-1.75042805495e-05,0.201215609908,-9.80524921417,0.493339389563
1560244959018780231,-0.00355829484761,0.00130453448869,-1.75042805495e-05,0.200246021152,-9.78496170044,0.533078670502
1560244959022676229,-0.00212052238869,9.54246752372e-06,-1.75042805495e-05,0.180707961321,-9.76530265808,0.49352028966
1560244959026572227,-0.00355829484761,0.000688643527057,-1.75042805495e-05,0.181352600455,-9.78542995453,0.473716616631
1560244959030468225,-0.0052248529042,0.00342142985375,-1.75042805495e-05,0.161479070783,-9.80521392822,0.494228869677
1560244959034364223,-0.00530362408608,0.00175487168599,-1.75042805495e-05,0.180707961321,-9.76530265808,0.49352028966
1560244959038261175,-0.00355829484761,0.00175487168599,-0.000167337998231,0.180063322186,-9.74517726898,0.513323962688
1560244959042157173,-0.00355829484761,0.00175487168599,-0.00176283356268,0.159864842892,-9.76480007172,0.553771853447
1560244959046053410,-0.00393702411218,0.00387893025493,-0.00176283356268,0.199281692505,-9.74487113953,0.552750408649
1560244959049949408,-0.00530362408608,0.00524553004652,-0.00176283356268,0.160514742136,-9.76512336731,0.513900637627
1560244959053845406,-0.002950932547,0.00289283869976,-1.75042805495e-05,0.199931591749,-9.74519443512,0.512879252434
1560244959057741404,-0.00181296560913,0.000160670312019,-0.00161170571267,0.199926331639,-9.76499652863,0.532946705818
1560244959061638355,-0.00264976026566,0.00175487168599,-0.00176283356268,0.181347340345,-9.80523204803,0.49378412962
1560244959065534353,-0.00530362408608,0.00342210718694,-0.00176283356268,0.180702701211,-9.78510665894,0.513587832451
1560244959069430351,-0.00530362408608,0.00175487168599,-0.00069785015027,0.181027650833,-9.7852678299,0.493652194738
1560244959073327303,-0.00355829484761,0.00350020104088,-1.75042805495e-05,0.180377751589,-9.7849445343,0.533523440361
1560244959077223301,-0.00355829484761,0.00350020104088,-1.75042805495e-05,0.16116464138,-9.7654466629,0.474029421806
1560244959081120253,-0.00409508787684,0.00175487168599,-0.00176283356268,0.180702701211,-9.78510665894,0.513587832451
1560244959085016251,-0.00530362408608,0.00175487168599,-0.00176283356268,0.181672289968,-9.80539417267,0.473848521709
1560244959088912249,-0.00530362408608,0.00175487168599,-0.000997569609948,0.181027650833,-9.7852678299,0.493652194738
1560244959092809439,-0.00530362408608,0.00174701563744,-1.75042805495e-05,0.180388271809,-9.74533843994,0.493388354778
1560244959096705437,-0.00430930317157,9.54246752372e-06,-1.75042805495e-05,0.181032910943,-9.76546478271,0.473584681749
1560244959100602388,-0.00157593149067,9.54246752372e-06,-1.75042805495e-05,0.181352600455,-9.78542995453,0.473716616631
1560244959104498386,-6.76363852108e-05,9.54246752372e-06,-1.75042805495e-05,0.180058062077,-9.76497936249,0.533391475677
1560244959108394384,-0.00227867625702,0.00047525311007,-1.75042805495e-05,0.180388271809,-9.74533843994,0.493388354778
1560244959112290382,-0.00501067316274,0.00175487168599,-1.75042805495e-05,0.181032910943,-9.76546478271,0.473584681749
1560244959116186380,-0.00460940410537,0.00280598101387,-0.00106861356461,0.160834431648,-9.78508853912,0.514032542706
1560244959120082378,-0.00355829484761,0.00175487168599,-1.75042805495e-05,0.160514742136,-9.76512336731,0.513900637627
1560244959123979330,-0.00181296560913,0.00267812189458,-1.75042805495e-05,0.180063322186,-9.74517726898,0.513323962688
1560244959127875328,-0.00197736341013,0.00333580322892,-1.75042805495e-05,0.160189792514,-9.76496124268,0.533836245537
1560244959131771564,-0.00355829484761,0.00175487168599,-1.75042805495e-05,0.179722592235,-9.80442428589,0.593462109566
1560244959135667562,-0.0039516458637,0.00136152067441,-1.75042805495e-05,0.180372491479,-9.80474758148,0.553590893745
1560244959139563560,-0.00392337521737,-0.00137070641701,-0.00139775318379,0.179727852345,-9.78462123871,0.573394536972
1560244959143460512,-0.00181296560913,-0.00111293276648,-1.75042805495e-05,0.180058062077,-9.76497936249,0.533391475677
1560244959147356510,-0.00181296560913,9.54246752372e-06,-1.75042805495e-05,0.199601382017,-9.76483535767,0.552882313728
1560244959151252508,-0.00266447620175,0.000861053050381,-1.75042805495e-05,0.19863705337,-9.72474479675,0.572554111481
1560244959155148506,-0.00355829484761,0.00175487168599,-1.75042805495e-05,0.199281692505,-9.74487113953,0.552750408649
1560244959159044504,-0.00463856939137,0.00175487168599,-1.75042805495e-05,0.179727852345,-9.78462123871,0.573394536972
1560244959162940502,-0.00530362408608,0.00143343440882,-1.75042805495e-05,0.199601382017,-9.76483535767,0.552882313728
1560244959166836500,-0.00530362408608,9.54246752372e-06,-1.75042805495e-05,0.198306843638,-9.7443857193,0.612557172775
1560244959170732498,-0.00475340053774,-0.0022860103026,-1.75042805495e-05,0.199921071529,-9.78480052948,0.553014278412
1560244959174628496,-0.00355829484761,-0.00348111591302,-1.75042805495e-05,0.17908321321,-9.76449489594,0.593198299408
1560244959178524494,-0.00277975118972,-0.00173578679096,-0.00254137716864,0.199915811419,-9.80460262299,0.573081731796
1560244959182420492,-0.00181296560913,-0.00348111591302,-0.00348792695224,0.219144701958,-9.76469135284,0.572373151779
1560244959186316490,-0.00282027841412,-0.00247380317522,-0.000755520732498,0.199276432395,-9.76467323303,0.572817921638
1560244959190212488,-0.00355829484761,9.54246752372e-06,-1.75042805495e-05,0.17908321321,-9.76449489594,0.593198299408
1560244959194109440,-0.00355829484761,9.54246752372e-06,-1.75042805495e-05,0.198962002993,-9.72490692139,0.552618503571
1560244959198005438,-0.00530362408608,0.000487668952102,-0.000495630782569,0.199596121907,-9.78463840485,0.572949826717
1560244959201901436,-0.00530362408608,0.00175487168599,-0.00176283356268,0.180052801967,-9.78478336334,0.553458988667
1560244959205797434,-0.00530362408608,9.54246752372e-06,-0.00105600847496,0.180052801967,-9.78478336334,0.553458988667
1560244959209693432,-0.00360996224239,0.0017032042918,-1.75042805495e-05,0.179727852345,-9.78462123871,0.573394536972
1560244959213589430,-0.00262324934196,0.00175487168599,-0.00095254980958,0.180052801967,-9.78478336334,0.553458988667
1560244959217485428,-0.00181296560913,9.54246752372e-06,-0.00176283356268,0.200246021152,-9.78496170044,0.533078670502
1560244959221381426,-0.00181296560913,9.54246752372e-06,-0.000599001760442,0.16115938127,-9.78524971008,0.494096934795
1560244959225277424,-0.00221811327858,0.00175487168599,-1.75042805495e-05,0.200890660286,-9.80508804321,0.513275027275
1560244959229172468,-0.00495007604579,0.003146652977,-1.75042805495e-05,0.180377751589,-9.7849445343,0.533523440361
1560244959233068466,-0.00355829484761,0.00413337616867,-1.75042805495e-05,0.180702701211,-9.78510665894,0.513587832451
1560244959236965418,-0.00355829484761,0.00524553004652,-1.75042805495e-05,0.161154121161,-9.80505275726,0.514164447784
1560244959240860462,-0.00355829484761,0.00524553004652,-0.000879382546424,0.200570970774,-9.78512382507,0.513143062592
1560244959244756460,-0.00170978786858,0.00350020104088,-0.000120682024546,0.180058062077,-9.76497936249,0.533391475677
1560244959248652458,-0.00115779803799,0.00241003930629,-0.00176283356268,0.180058062077,-9.76497936249,0.533391475677
1560244959252548456,-0.00214490764389,0.00175487168599,-0.00143089151962,0.179413422942,-9.74485397339,0.553195118904
1560244959256444454,-0.00355829484761,0.00175487168599,-1.75042805495e-05,0.198956742883,-9.74470901489,0.572685956955
1560244959260340214,-0.00237333737268,9.54246752372e-06,-1.75042805495e-05,0.199601382017,-9.76483535767,0.552882313728
1560244959264236689,-0.00355829484761,9.54246752372e-06,-1.75042805495e-05,0.180052801967,-9.78478336334,0.553458988667
1560244959268133640,-0.00276808060247,0.00175487168599,-0.00176283356268,0.158889994025,-9.76431465149,0.613578557968
1560244959272029638,-0.00355829484761,0.00175487168599,-0.00176283356268,0.177793934941,-9.72424316406,0.632805585861
1560244959280198097,-0.00355829484761,0.00175487168599,-0.00278124770187,0.158889994025,-9.76431465149,0.613578557968
1560244959284103155,-0.00381840047544,0.00149476606113,-0.00324805707425,0.178763523698,-9.7445306778,0.593066334724
1560244959288008213,-0.00530362408608,9.54246752372e-06,-0.000515955258497,0.179402902722,-9.78446006775,0.593330144882
1560244959291914463,-0.00704895332456,9.54246752372e-06,-1.75042805495e-05,0.179727852345,-9.78462123871,0.573394536972
1560244959295819759,-0.00704895332456,9.54246752372e-06,-1.75042805495e-05,0.199926331639,-9.76499652863,0.532946705818
1560244959299725056,-0.00458571447011,0.00247278134985,-0.000735413914481,0.180052801967,-9.78478336334,0.553458988667
1560244959303630352,-0.00185334106424,0.00520515459681,-0.00176283356268,0.179733112454,-9.76481819153,0.553327083588
1560244959307535410,-0.00355829484761,0.00524553004652,-0.000963662691048,0.178763523698,-9.7445306778,0.593066334724
1560244959311441660,-0.00355829484761,0.00524553004652,-0.00176283356268,0.180052801967,-9.78478336334,0.553458988667
1560244959315346956,-0.00473391429731,0.00406991075365,-0.00176283356268,0.180052801967,-9.78478336334,0.553458988667
1560244959319252253,-0.00488601206104,0.00524553004652,-1.75042805495e-05,0.159859582782,-9.7846031189,0.573839306831
1560244959323158503,-0.00355829484761,0.00384035804311,0.00138766787517,0.180052801967,-9.78478336334,0.553458988667
1560244959327062607,-0.00291261812302,-0.000636134264463,0.00108214820584,0.180377751589,-9.7849445343,0.533523440361
1560244959330968857,-0.00181296560913,-0.00173578679096,-1.75042805495e-05,0.161154121161,-9.80505275726,0.514164447784
1560244959334873915,-0.00268788283405,9.54246752372e-06,-1.75042805495e-05,0.159859582782,-9.7846031189,0.573839306831
1560244959338779211,-0.00530362408608,0.00187132695213,-1.75042805495e-05,0.180697441101,-9.80490875244,0.533655285835
1560244959342683315,-0.00530362408608,0.00239715059352,-1.75042805495e-05,0.160504221916,-9.80472946167,0.554035663605
1560244959346588612,-0.00530362408608,9.54246752372e-06,-0.00210719459756,0.160509482026,-9.78492641449,0.533968091011
1560244959350493908,-0.00530362408608,9.54246752372e-06,-0.00217677589677,0.179408162832,-9.76465606689,0.573262691498
1560244959354400158,-0.00355829484761,9.54246752372e-06,-0.00118895344472,0.180377751589,-9.7849445343,0.533523440361
1560244959358305454,-0.00355829484761,0.0015702483093,-1.75042805495e-05,0.15953463316,-9.78444194794,0.593774914742
1560244959362210512,-0.00355829484761,0.000952273934878,-1.75042805495e-05,0.178433313966,-9.76417160034,0.633069455624
1560244959366115808,-0.00181296560913,9.54246752372e-06,-1.75042805495e-05,0.178753003478,-9.78413677216,0.633201360703
1560244959370021105,-0.00181296560913,9.54246752372e-06,-1.75042805495e-05,0.178433313966,-9.76417160034,0.633069455624
1560244959373925209,-0.00355829484761,9.54246752372e-06,-1.75042805495e-05,0.178108364344,-9.76400947571,0.653005063534
1560244959377831459,-0.00355829484761,9.54246752372e-06,-1.75042805495e-05,0.178758263588,-9.7643327713,0.613133847713
1560244959381736517,-0.00405948666563,0.00101192613125,-0.000518696111107,0.177468985319,-9.72408103943,0.652741193771
1560244959385641813,-0.00381546647732,0.00350020104088,-0.00176283356268,0.197331994772,-9.74390125275,0.672363996506
1560244959389547110,-0.00209860052466,0.00277035382768,-0.0027783155689,0.178113624454,-9.7442073822,0.632937550545
1560244959393452406,-0.00178443541465,3.80726619134e-05,-0.00176283356268,0.178763523698,-9.7445306778,0.593066334724
1560244959397357464,-0.0010257158316,-0.00173578679096,-1.75042805495e-05,0.158234834671,-9.78379535675,0.673517286777
1560244959401262760,-0.00201293218193,9.54246752372e-06,-1.75042805495e-05,0.177458465099,-9.76368618011,0.692876219749
1560244959405168056,-0.00355829484761,9.54246752372e-06,-1.75042805495e-05,0.158559784293,-9.78395652771,0.653581738472
1560244959409073353,-0.00398703952342,9.54246752372e-06,-0.00176283356268,0.178438574076,-9.74436855316,0.613001942635
1560244959412978411,-0.00671910802482,0.00142502639003,-0.000347349588539,0.179722592235,-9.80442428589,0.593462109566
1560244959416883469,-0.00639216092457,0.00175487168599,-1.75042805495e-05,0.178433313966,-9.76417160034,0.633069455624
1560244959420788765,-0.00365940104317,0.000110648661927,-1.75042805495e-05,0.158570304513,-9.74435043335,0.613446652889
1560244959424694061,-0.00355829484761,9.54246752372e-06,-1.75042805495e-05,0.179402902722,-9.78446006775,0.593330144882
1560244959428599358,-0.00368526156183,-0.00160882007528,-1.75042805495e-05,0.17908321321,-9.76449489594,0.593198299408
1560244959432504416,-0.00530362408608,9.54246752372e-06,-1.75042805495e-05,0.179722592235,-9.80442428589,0.593462109566
1560244959436409712,-0.00494808481628,0.000365081733248,-1.75042805495e-05,0.179402902722,-9.78446006775,0.593330144882
1560244959440315008,-0.0022152205224,0.00175487168599,-0.00136057863935,0.199590861797,-9.80444145203,0.593017339706
1560244959444220304,-0.00181296560913,0.00291581114513,-0.000601894151938,0.15953463316,-9.78444194794,0.593774914742
1560244959448125601,-0.00338417890552,0.000183658407614,-0.00176283356268,0.17908321321,-9.76449489594,0.593198299408
1560244959452030420,-0.00437131335152,9.54246752372e-06,-0.000949815038429,0.199601382017,-9.76483535767,0.552882313728
1560244959455935717,-0.00530362408608,0.00180909517634,-1.75042805495e-05,0.198946222663,-9.78431510925,0.612820982933
1560244959459841013,-0.0042618654044,0.00350020104088,-1.75042805495e-05,0.179402902722,-9.78446006775,0.593330144882
1560244959463747263,-0.00384220462336,0.00350020104088,-0.000301414063401,0.199915811419,-9.80460262299,0.573081731796
1560244959467652321,-0.00530362408608,0.0022296881001,-0.00176283356268,0.199276432395,-9.76467323303,0.572817921638
1560244959471557617,-0.00479113577497,9.54246752372e-06,-0.00125034523875,0.17908321321,-9.76449489594,0.593198299408
1560244959475462914,-0.00205896246343,0.00150887483451,-1.75042805495e-05,0.179392382503,-9.82406616211,0.63346517086
1560244959479368210,-0.00355829484761,0.00249586532246,-0.000758497886125,0.198621273041,-9.78415393829,0.632756590843
1560244959483273506,-0.00355829484761,0.00350020104088,-0.00176283356268,0.198301583529,-9.76418876648,0.632624745369
1560244959487177372,-0.00181296560913,0.00350020104088,-0.00176283356268,0.198296323419,-9.78399181366,0.652692198753
1560244959491082668,-0.00181296560913,0.00175487168599,-0.00176283356268,0.177458465099,-9.76368618011,0.692876219749
1560244959494987011,-0.00181296560913,0.00175487168599,-0.000566246235873,0.197656944394,-9.74406242371,0.652428388596
1560244959498892307,-0.00181296560913,0.00393874264211,-0.00132429189198,0.217850163579,-9.74424266815,0.632048010826
1560244959502797365,-0.00181296560913,0.00524553004652,-1.75042805495e-05,0.177458465099,-9.76368618011,0.692876219749
1560244959506703615,-0.00355829484761,0.00524553004652,-1.75042805495e-05,0.158565044403,-9.76415348053,0.633514165878
1560244959510607958,-0.00521221264974,0.00524553004652,-1.75042805495e-05,0.177144035697,-9.72391986847,0.672676801682
1560244959514512300,-0.00355829484761,0.00260543017573,-1.75042805495e-05,0.178108364344,-9.76400947571,0.653005063534
1560244959518417120,-0.00369485987526,0.00175487168599,-0.00162626853162,0.19700704515,-9.74373912811,0.692299544811
1560244959522322416,-0.00530362408608,0.000631694545393,-1.75042805495e-05,0.217844903469,-9.76404476166,0.65211558342
1560244959526227713,-0.00530362408608,9.54246752372e-06,-1.75042805495e-05,0.178108364344,-9.76400947571,0.653005063534
1560244959530133009,-0.00530362408608,9.54246752372e-06,-1.75042805495e-05,0.178103104234,-9.78381347656,0.673072576523
1560244959534037113,-0.00355829484761,0.000602163659858,-1.75042805495e-05,0.178108364344,-9.76400947571,0.653005063534
1560244959537942410,-0.00355829484761,0.00333427336615,-1.75042805495e-05,0.1790779531,-9.78429794312,0.613265752792
1560244959541848660,-0.00530362408608,0.00350020104088,-0.000839620996013,0.199265912175,-9.80427932739,0.612952947617
1560244959545753956,-0.00530362408608,0.00343664014614,-0.00344460179848,0.177788674831,-9.74404525757,0.652873158455
1560244959549660206,-0.00530362408608,0.000703671520178,-0.00176283356268,0.158240094781,-9.7639913559,0.653449773788
1560244959553565264,-0.00385110197845,-0.000283264666674,-1.75042805495e-05,0.178428053856,-9.78397464752,0.653136968613
1560244959557470560,-0.00530362408608,-0.00173578679096,-1.75042805495e-05,0.180047541857,-9.80458545685,0.573526501656
1560244959561375618,-0.00530362408608,9.54246752372e-06,-1.75042805495e-05,0.179397642612,-9.80426216125,0.613397717476
1560244959565280914,-0.00681189401669,0.00151781238084,-1.75042805495e-05,0.159209683537,-9.7842798233,0.613710522652
1560244959569186211,-0.00629895346312,0.00175487168599,-1.75042805495e-05,0.159854322672,-9.80440616608,0.593906879425
1560244959573091269,-0.00530362408608,0.00175487168599,-1.75042805495e-05,0.159859582782,-9.7846031189,0.573839306831
1560244959576996565,-0.00258010275502,0.00350020104088,-0.00176283356268,0.180042281747,-9.8243894577,0.593594074249
1560244959580901861,-0.00159323552633,0.00328047094159,-0.00176283356268,0.179727852345,-9.78462123871,0.573394536972
1560244959584808111,-6.76363852108e-05,0.000547169994977,-0.000555131827614,0.198306843638,-9.7443857193,0.612557172775
1560244959588712215,-6.76363852108e-05,9.54246752372e-06,-0.00221113635273,0.158889994025,-9.76431465149,0.613578557968
1560244959592618465,-6.76363852108e-05,9.54246752372e-06,-0.00350816268474,0.178753003478,-9.78413677216,0.633201360703
1560244959596523762,-0.00074544898559,0.00175487168599,-0.00108502093969,0.158234834671,-9.78379535675,0.673517286777
1560244959600430012,-0.00181296560913,8.95958295954e-05,-1.75042805495e-05,0.1790779531,-9.78429794312,0.613265752792
1560244959604336262,-0.00181296560913,-0.000898409121497,-1.75042805495e-05,0.157265245914,-9.76350688934,0.713256597519
1560244959608242512,-0.00370828585583,9.54246752372e-06,-0.000167495292528,0.177458465099,-9.76368618011,0.692876219749
1560244959612148523,-0.00530362408608,9.54246752372e-06,-0.000625351298681,0.178103104234,-9.78381347656,0.673072576523
1560244959616053820,-0.00355829484761,9.54246752372e-06,-1.75042805495e-05,0.157915145159,-9.76383018494,0.673385381699
1560244959619958878,-0.00355829484761,9.54246752372e-06,-0.00138361763266,0.177463725209,-9.74388408661,0.67280870676
1560244959623864174,-0.00120522757031,9.54246752372e-06,-0.00176283356268,0.177133515477,-9.76352500916,0.71281182766
1560244959627770424,-6.76363852108e-05,-0.0015859630294,-0.000167328044142,0.157265245914,-9.76350688934,0.713256597519
1560244959631675482,-0.000904614022638,-0.00257276437954,-0.00176283356268,0.156945556402,-9.7435426712,0.713124632835
1560244959635580778,-0.00189171443644,-0.00165703796275,-0.00342941386268,0.176971033216,-9.76344394684,0.722779631615
1560244959639487028,-0.00355829484761,9.54246752372e-06,-0.000696493747144,0.19700178504,-9.76354217529,0.7123670578
1560244959643392324,-0.00355829484761,9.54246752372e-06,-1.75042805495e-05,0.177290722728,-9.78340911865,0.722911536694
1560244959647298574,-0.00355829484761,9.54246752372e-06,-1.75042805495e-05,0.177458465099,-9.76368618011,0.692876219749
1560244959651203871,-0.00530362408608,9.54246752372e-06,-0.00176283356268,0.157265245914,-9.76350688934,0.713256597519
1560244959655109882,-0.00377869261457,9.54246752372e-06,-0.000237902053023,0.177778154612,-9.78365135193,0.693008124828
1560244959659015179,-0.00279189803713,9.54246752372e-06,-1.75042805495e-05,0.177290722728,-9.78340911865,0.722911536694
1560244959662920475,-0.00181296560913,-0.00173578679096,-1.75042805495e-05,0.217519953847,-9.7638835907,0.67205119133
1560244959666825771,-0.00181296560913,-0.00273099617191,-1.75042805495e-05,0.17907269299,-9.8041009903,0.633333325386
1560244959670730829,-0.00181296560913,-0.00348111591302,-0.000254472961725,0.198301583529,-9.76418876648,0.632624745369
1560244959674635887,-0.00303658136421,-0.00225750023956,-0.000539217776998,0.198621273041,-9.78415393829,0.632756590843
1560244959678541183,-0.00355829484761,-0.00173578679096,-1.75042805495e-05,0.177783414721,-9.76384830475,0.672940611839
1560244959682447433,-0.00210510526315,-0.00318897627849,-1.75042805495e-05,0.198621273041,-9.78415393829,0.632756590843
1560244959686352730,-0.00181296560913,-0.00348111591302,-1.75042805495e-05,0.218809232116,-9.80413627625,0.632443785667
1560244959690257788,-0.00181296560913,-0.000117590092001,-0.00169926727957,0.218814492226,-9.78433322906,0.612376272678
1560244959694163084,-6.76363852108e-05,0.000932843468559,-0.00268613451271,0.17907269299,-9.8041009903,0.633333325386
1560244959698068380,-6.76363852108e-05,0.00508102477381,-0.00192733884636,0.197976633906,-9.76402664185,0.652560353279
1560244959701974630,-0.00121990366906,0.00350020104088,-0.00235589546814,0.17906743288,-9.82390403748,0.65340077877
1560244959705879927,-6.76363852108e-05,0.00175487168599,-0.00136879127943,0.197641164064,-9.80347156525,0.712630927563
1560244959709784985,-6.76363852108e-05,0.00175487168599,-1.75042805495e-05,0.178433313966,-9.76417160034,0.633069455624
1560244959713690281,-6.76363852108e-05,0.00412272311572,-1.75042805495e-05,0.177453204989,-9.78349018097,0.712943732738
1560244959717595577,-0.00167700285079,0.00524553004652,-1.75042805495e-05,0.177458465099,-9.76368618011,0.692876219749
1560244959721500635,-0.000918703076948,0.00439446346122,-1.75042805495e-05,0.158234834671,-9.78379535675,0.673517286777
1560244959725405931,-6.76363852108e-05,0.00359296443611,-1.75042805495e-05,0.177778154612,-9.78365135193,0.693008124828
1560244959729310989,-6.76363852108e-05,0.00524553004652,-1.75042805495e-05,0.177458465099,-9.76368618011,0.692876219749
1560244959733217239,-6.76363852108e-05,0.0066688424177,-0.000339521155902,0.176971033216,-9.76344394684,0.722779631615
1560244959737121582,-6.76363852108e-05,0.00655373429502,-0.00307103772392,0.176646083593,-9.76328277588,0.742715239525
1560244959741026878,-6.76363852108e-05,0.00524553004652,-0.00295818259426,0.177772894502,-9.80345439911,0.713075637817
1560244959744932890,-6.76363852108e-05,0.00524553004652,-0.00022538850975,0.177458465099,-9.76368618011,0.692876219749
1560244959748837233,-6.76363852108e-05,0.00524553004652,-0.000984591919052,0.176494136453,-9.72359657288,0.712548017502
1560244959752742529,-6.76363852108e-05,0.00524553004652,-1.75042805495e-05,0.176971033216,-9.76344394684,0.722779631615
1560244959756647587,-6.76363852108e-05,0.00524553004652,-1.75042805495e-05,0.195864453912,-9.76297664642,0.782141685486
1560244959760552883,-6.76363852108e-05,0.00524553004652,-0.00176283356268,0.176646083593,-9.76328277588,0.742715239525
1560244959764457941,-0.00130309807397,0.00524553004652,-0.00176283356268,0.196834042668,-9.78326511383,0.742402434349
1560244959768363237,-0.00181296560913,0.006990859285,-1.75042805495e-05,0.177133515477,-9.76352500916,0.71281182766
1560244959772268534,-0.00181296560913,0.006990859285,-1.75042805495e-05,0.196682095528,-9.74357795715,0.712235152721
1560244959776173830,-0.00110722572775,0.00524553004652,-1.75042805495e-05,0.156458124518,-9.74330043793,0.743028044701
1560244959780077934,-6.76363852108e-05,0.00524553004652,-1.75042805495e-05,0.156447604299,-9.78290653229,0.783163070679
1560244959783983231,-6.76363852108e-05,0.00617881860937,-1.75042805495e-05,0.176326394081,-9.74331855774,0.742583274841
1560244959787888527,-0.000242803531063,0.00873618852347,-0.000192671432244,0.176646083593,-9.76328277588,0.742715239525
1560244959791793585,-0.00181296560913,0.00873618852347,-0.00292477415792,0.176315873861,-9.7829246521,0.782718300819
1560244959795698643,-0.00181296560913,0.00484209447584,-0.00310472708715,0.157097503543,-9.78322982788,0.743291854858
1560244959799604893,-0.000421973899748,0.00350020104088,-0.000371841806904,0.157097503543,-9.78322982788,0.743291854858
1560244959803510189,-0.000700497358031,0.00651125200272,-1.75042805495e-05,0.156777814031,-9.76326465607,0.743159890175
1560244959807415485,-0.000193256572536,0.00873618852347,-1.75042805495e-05,0.156777814031,-9.76326465607,0.743159890175
1560244959811320782,-6.76363852108e-05,0.00787495242705,-0.00176283356268,0.177133515477,-9.76352500916,0.71281182766
1560244959815225840,-6.76363852108e-05,0.00688764363782,-0.00340494704445,0.156777814031,-9.76326465607,0.743159890175
1560244959819130182,-0.00115677743417,0.00524553004652,-0.000673692477393,0.176813825965,-9.74356079102,0.712679862976
1560244959823035479,-0.00322707380466,0.00524553004652,-0.000348725331778,0.156777814031,-9.76326465607,0.743159890175
1560244959826940775,-0.00181296560913,0.00392756709746,-0.00308079659965,0.177772894502,-9.80345439911,0.713075637817
1560244959830844641,-0.00125454705869,0.00405861952149,-0.00406658123984,0.177772894502,-9.80345439911,0.713075637817
1560244959834749937,-6.76363852108e-05,0.00679074523572,-0.00525349192321,0.198291063309,-9.80379486084,0.672759771347
1560244959838655233,-0.00181296560913,0.00620370131011,-0.00446633394833,0.178433313966,-9.76417160034,0.633069455624
1560244959842560530,-6.76363852108e-05,0.00521683604517,-0.00176283356268,0.178422793746,-9.8037776947,0.673204481602
1560244959846464634,-6.76363852108e-05,0.00451494649875,-0.00176283356268,0.157584935427,-9.78347206116,0.713388442993
1560244959850368977,-6.76363852108e-05,0.00524553004652,-0.00350816268474,0.178753003478,-9.78413677216,0.633201360703
1560244959854274273,-6.76363852108e-05,0.00524553004652,-0.00475103870633,0.198296323419,-9.78399181366,0.652692198753
1560244959858179331,-0.000552264750071,0.00350020104088,-0.00302353434816,0.218154072762,-9.82361602783,0.692382454872
1560244959862084389,-0.00181296560913,0.000557573275328,-0.00323414730668,0.197971373796,-9.7838306427,0.672627806664
1560244959865989685,-6.76363852108e-05,0.000722517200415,-0.00350816268474,0.177453204989,-9.78349018097,0.712943732738
1560244959869894981,-6.76363852108e-05,0.00515477672162,-0.00180821022362,0.176971033216,-9.76344394684,0.722779631615
1560244959873800278,-6.76363852108e-05,0.00524553004652,-0.00176283356268,0.157102763653,-9.76342582703,0.723224401474
1560244959877704382,-6.76363852108e-05,0.0033175795928,-0.00158021212222,0.19700178504,-9.76354217529,0.7123670578
1560244959881609678,-6.76363852108e-05,0.000585536497925,-1.75042805495e-05,0.196514353156,-9.76329994202,0.742270469666
1560244959885514021,-6.76363852108e-05,0.00216496824512,-0.000427600822582,0.196834042668,-9.78326511383,0.742402434349
1560244959889419079,-6.76363852108e-05,0.00489766535453,-0.00316029796955,0.177285462618,-9.80321216583,0.742979049683
1560244959893323183,-6.76363852108e-05,0.00524553004652,-0.00350816268474,0.176651343703,-9.7434797287,0.722647666931
1560244959897228479,-6.76363852108e-05,0.00362078162163,-0.00188341415147,0.138041615486,-9.7836151123,0.693897604942
1560244959901132822,-6.76363852108e-05,0.00175487168599,-0.00176283356268,0.137396976352,-9.76348876953,0.713701248169
1560244959905038118,-6.76363852108e-05,0.00360764656559,-0.00176283356268,0.177778154612,-9.78365135193,0.693008124828
1560244959908943176,-6.76363852108e-05,0.00524553004652,-0.00285754253406,0.179402902722,-9.78446006775,0.593330144882
1560244959912847519,-6.76363852108e-05,0.00491004365634,-0.00350816268474,0.158234834671,-9.78379535675,0.673517286777
1560244959916752577,0.00125457774327,0.00482241498195,-0.00218594865548,0.178747743368,-9.80393886566,0.653268933296
1560244959920656919,0.00167769286782,0.00524553004652,-0.00119941013814,0.137554183602,-9.78337287903,0.723801016808
1560244959924561024,0.000128308865059,0.00524553004652,-0.00156688830914,0.157742142677,-9.80335521698,0.723488211632
1560244959928465366,0.000722814568631,0.00524553004652,-0.00255328445721,0.178753003478,-9.78413677216,0.633201360703
1560244959932369709,0.00164615989958,0.0034371351032,-0.00176283356268,0.177453204989,-9.78349018097,0.712943732738
1560244959936274767,-6.76363852108e-05,9.54246752372e-06,-0.00176283356268,0.19715899229,-9.78342628479,0.722466826439
1560244959940179825,0.00193753255744,0.00201471139295,-0.00176283356268,0.177290722728,-9.78340911865,0.722911536694
1560244959944085121,0.00342302210629,0.00225339436004,-0.00176283356268,0.176971033216,-9.76344394684,0.722779631615
1560244959947989464,0.00342302210629,9.54246752372e-06,-0.00127500826046,0.176321133971,-9.76312065125,0.762650847435
1560244959951894522,0.00342302210629,9.54246752372e-06,-1.75042805495e-05,0.175356805325,-9.72303104401,0.782322525978
1560244959955799818,0.00270651496837,0.00350020104088,-0.000734011436391,0.195219814777,-9.74285030365,0.801945328712
1560244959959704161,-2.50922981881e-05,0.00520298596553,-0.00346561860091,0.175996184349,-9.76295948029,0.782586336136
1560244959963608503,-6.76363852108e-05,0.00444385617437,-0.00256450748831,0.155808225274,-9.74297714233,0.782899141312
1560244959967513323,-0.00355829484761,0.006990859285,-1.75042805495e-05,0.156458124518,-9.74330043793,0.743028044701
1560244959971418619,-0.00238623311132,0.00581879754871,-1.75042805495e-05,0.156772553921,-9.78306770325,0.763227462769
1560244959975322962,-6.76363852108e-05,0.00308743480551,-1.75042805495e-05,0.19553950429,-9.76281452179,0.802077293396
1560244959979228258,-6.76363852108e-05,0.00315503889273,-0.00141767142892,0.216697052121,-9.80308532715,0.762025117874
1560244959983132362,0.00103691629073,0.00350020104088,-0.00240361009168,0.217341691256,-9.8232126236,0.742221474648
1560244959987037659,-6.76363852108e-05,0.00512778530625,-0.00188057831081,0.196178883314,-9.80274391174,0.802341103554
1560244959990942955,-6.76363852108e-05,0.00786018857816,-1.75042805495e-05,0.215737983584,-9.74319171906,0.761629462242
1560244959994847059,-6.76363852108e-05,0.00873618852347,-0.000127619498409,0.234636664391,-9.72292137146,0.80092394352
1560244959998752117,-0.00116470036889,0.00873618852347,-0.00285989748233,0.25385504961,-9.72261619568,0.840350389481
1560244960002657413,-0.0021516587571,0.00873618852347,-0.00525349192321,0.213148906827,-9.70229244232,0.880979061127
1560244960006561756,-0.00355829484761,0.0100610770227,-0.00392860342398,0.214763134718,-9.7427072525,0.821436166763
1560244960010467052,-0.00355829484761,0.00930295734208,-0.00176283356268,0.194889605045,-9.7624912262,0.841948390007
1560244960014372110,-0.00355829484761,0.0104815177619,-0.00176283356268,0.194569915533,-9.74252700806,0.841816544533
1560244960018277407,-0.00435329498646,0.00968651762309,-0.00271316259892,0.233981519938,-9.74240112305,0.860862612724
1560244960022182703,-0.00530362408608,0.006990859285,-1.75042805495e-05,0.194575175643,-9.72272491455,0.821748971939
1560244960026087999,-0.00632736332911,0.006990859285,-1.75042805495e-05,0.195225074887,-9.72304821014,0.781877756119
1560244960029993057,-0.00704895332456,0.00672591534847,-1.75042805495e-05,0.194580435753,-9.7029209137,0.801681518555
1560244960033898115,-0.00579676031708,0.00524553004652,-1.75042805495e-05,0.19553424418,-9.78261852264,0.82214474678
1560244960037802458,-0.00655598362626,0.00524553004652,-1.75042805495e-05,0.196834042668,-9.78326511383,0.742402434349
1560244960041707754,-0.00678400879447,0.00524553004652,-0.00149788902597,0.197646424174,-9.78366851807,0.692563414574
1560244960045613050,-0.00704895332456,0.00350020104088,-0.00104107741098,0.218164592981,-9.78400993347,0.652247488499
1560244960049518108,-0.00875726138782,0.00350020104088,-1.75042805495e-05,0.238687992096,-9.76454734802,0.591864049435
1560244960053423405,-0.00879428256303,0.00350020104088,-1.75042805495e-05,0.200235500932,-9.8245677948,0.57321369648
1560244960057328701,-0.0105396118015,0.00156309585944,-1.75042805495e-05,0.181022390723,-9.80507087708,0.51371973753
1560244960061232805,-0.00936187761363,9.54246752372e-06,0.00116022987786,0.18198671937,-9.84516239166,0.49404796958
1560244960065138817,-0.00704895332456,9.54246752372e-06,0.00130742430241,0.202829837799,-9.84566402435,0.433796465397
1560244960069044113,-0.00704895332456,0.00141667864847,-1.75042805495e-05,0.223342746496,-9.86580944061,0.413548052311
1560244960072949409,-0.00530362408608,0.00110593980833,-1.75042805495e-05,0.223662465811,-9.88577365875,0.413679987192
1560244960076854706,-0.00366788875713,9.54246752372e-06,-1.75042805495e-05,0.205722853541,-9.96593761444,0.374781221151
1560244960080760002,-0.00268104209441,-0.00173578679096,0.000859748450708,0.205093994737,-9.88640213013,0.334382355213
1560244960084663153,-6.76363852108e-05,-0.00161788614279,-1.75042805495e-05,0.20574387908,-9.88672542572,0.294511169195
1560244960088568449,-6.76363852108e-05,0.00111409442188,-1.75042805495e-05,0.164885774255,-9.82671451569,0.304972648621
1560244960092473745,0.000278927294,0.00350020104088,-1.75042805495e-05,0.135240599513,-9.8465719223,0.315739482641
1560244960096379995,0.00167769286782,0.00216609694343,0.00131659969454,0.145494416356,-9.86654567719,0.315649032593
1560244960100286007,0.00225362981621,-0.00114233139745,0.00230376190108,0.163423508406,-9.82598686218,0.394682824612
1560244960104191065,0.00498558023195,-0.00504367424713,0.00347315426916,0.18199723959,-9.80555534363,0.453912943602
1560244960108095407,0.00516835134476,-0.0069717746228,0.00172782491427,0.181347340345,-9.80523204803,0.49378412962
1560244960112000704,0.00342302210629,-0.00513569205336,0.00172782491427,0.139991313219,-9.78458499908,0.574284076691
1560244960115903854,0.00342302210629,-0.000704933857812,0.00275867790436,0.128117993474,-9.74400043488,0.653984963894
1560244960119809151,0.0054411116264,-0.00228130737243,0.00172782491427,0.136437907815,-9.70359516144,0.713305473328
1560244960123714447,0.00691368058324,-0.00648599768658,0.000468272643519,0.154204502702,-9.66295623779,0.802307128906
1560244960127618551,0.00641318075452,-0.00871710386127,0.00222832477638,0.122942455113,-9.65230083466,0.882650613785
1560244960131523609,0.00516835134476,-0.0102042116916,0.00496026209952,0.121653176844,-9.61204814911,0.922257900238
1560244960135428905,0.00269403682611,-0.0104624330997,0.00347315426916,0.110424496233,-9.59158992767,0.982155203819
1560244960139334202,-3.84392960743e-05,-0.0104624330997,0.00347315426916,0.130298033357,-9.57180500031,0.961642980576
1560244960143239498,-6.76363852108e-05,-0.0131650990751,0.00251581746845,0.130612462759,-9.61157226562,0.981842279434
1560244960147146702,-0.00221456656293,-0.0135514906229,0.0015270244424,0.15095500648,-9.6613407135,1.0016630888
1560244960151050806,-0.00530362408608,-0.0092756356669,-1.75042805495e-05,0.151279956102,-9.66150188446,0.981727361679
1560244960154956102,-0.0074770685952,-0.00782800516409,-1.75042805495e-05,0.192960932851,-9.68231010437,0.881291985512
1560244960158861399,-0.00879428256303,-0.0118780835871,-1.75042805495e-05,0.173742547631,-9.68261623383,0.841865420341
1560244960162766695,-0.0111965707342,-0.0146100501588,-1.75042805495e-05,0.175031855702,-9.72286891937,0.802258133888
1560244960166671515,-0.01228494104,-0.0173418492974,0.00162592421497,0.175681754947,-9.72319221497,0.762386918068
1560244960170576811,-0.01228494104,-0.0165583212512,0.00347315426916,0.177793934941,-9.72424316406,0.632805585861
1560244960174482107,-0.0139033163786,-0.0156984198838,0.00160087101762,0.239993095398,-9.74539089203,0.492054134607
1560244960178387403,-0.0133991686972,-0.0156984198838,-1.75042805495e-05,0.200906440616,-9.74567890167,0.453072428703
1560244960182292700,-0.0126406475582,-0.0153427135555,-1.75042805495e-05,0.182641863823,-9.8256816864,0.434109270573
1560244960186197758,-0.0126878373789,-0.0139530915767,-1.75042805495e-05,0.164712801576,-9.8662405014,0.355075478554
1560244960190102100,-0.00995622346959,-0.0133697032448,-1.75042805495e-05,0.166961163282,-9.96638679504,0.315863907337
1560244960194006443,-0.00722447042505,-0.0137775744762,-1.75042805495e-05,0.166976928711,-9.90697860718,0.25566136837
1560244960197911263,-0.00704895332456,-0.0113965430643,-0.00082872357477,0.207027897239,-9.94678115845,0.274971336126
1560244960201815605,-0.00704895332456,-0.00871710386127,-0.00171063214568,0.206068828702,-9.88688659668,0.274575561285
1560244960205720901,-0.00704895332456,-0.0107950821812,-1.75042805495e-05,0.206388518214,-9.90685176849,0.274707496166
1560244960209625244,-0.00299792178394,-0.0142332779602,0.00172782491427,0.185561150312,-9.84694004059,0.274756461382
1560244960213531256,-6.76363852108e-05,-0.0156984198838,0.00172782491427,0.164403617382,-9.80666828156,0.314808517694
1560244960217435598,-6.76363852108e-05,-0.0111911277451,-1.75042805495e-05,0.163103818893,-9.80602169037,0.39455088973
1560244960221340895,-6.76363852108e-05,-0.00722136939028,-1.75042805495e-05,0.14322501421,-9.84561061859,0.435130685568
1560244960225244045,0.00241339378204,-0.00522644538432,-1.75042805495e-05,0.160834431648,-9.78508853912,0.514032542706
1560244960229149103,0.00342302210629,-0.00350347261605,-1.75042805495e-05,0.159550413489,-9.7250328064,0.533572375774
1560244960233054399,0.00245913909913,-0.000771903772754,-1.75042805495e-05,0.177458465099,-9.76368618011,0.692876219749
1560244960236958742,0.00342302210629,-0.00173578679096,-1.75042805495e-05,0.155808225274,-9.74297714233,0.782899141312
1560244960240863085,0.0046143689662,-0.00173578679096,-1.75042805495e-05,0.175356805325,-9.72303104401,0.782322525978
1560244960244768143,0.00516835134476,-0.00130283250881,-0.00176283356268,0.17471216619,-9.70290374756,0.802126169205
1560244960248672247,0.00233012767125,-0.0014095693855,-0.00176283356268,0.152904704213,-9.66230964661,0.882049441338
1560244960252577543,-6.76363852108e-05,-0.00588715539959,-0.00110212353089,0.17211779952,-9.68180847168,0.941543459892
1560244960256481647,-6.76363852108e-05,-0.0069717746228,-1.75042805495e-05,0.191991344094,-9.66202163696,0.921031117439
1560244960260385990,-0.00270097230866,-0.00519576110528,-1.75042805495e-05,0.231898248196,-9.63243293762,0.880072593689
1560244960264290333,-0.00704895332456,9.54246752372e-06,-1.75042805495e-05,0.251127153635,-9.59252166748,0.879364013672
1560244960268194675,-0.00704895332456,9.54246752372e-06,-1.75042805495e-05,0.232542902231,-9.65256023407,0.860268950462
1560244960272099495,-0.00704895332456,0.000154782772535,-0.00176283356268,0.17471216619,-9.70290374756,0.802126169205
1560244960279639482,-0.00704895332456,0.00175487168599,-0.00176283356268,0.175681754947,-9.72319221497,0.762386918068
1560244960283548355,-0.00937844649133,9.54246752372e-06,-1.75042805495e-05,0.21656088531,-9.7039899826,0.671655416489
1560244960287458181,-0.0121098917242,9.54246752372e-06,-1.75042805495e-05,0.238032877445,-9.78402709961,0.651802778244
1560244960291368484,-0.0148427013682,0.000821973981503,-1.75042805495e-05,0.259520620108,-9.80465602875,0.571747541428
1560244960295278311,-0.0157217809521,0.00355401869588,-1.75042805495e-05,0.241277068853,-9.80544662476,0.472514331341
1560244960299188137,-0.0140302702785,0.00524553004652,-1.75042805495e-05,0.242582172155,-9.78629016876,0.372704446316
1560244960303097486,-0.01228494104,0.00524553004652,-1.75042805495e-05,0.223358526826,-9.80639839172,0.353345513344
1560244960307007313,-0.0110158982841,0.00524553004652,-0.00128654706814,0.204129651189,-9.84631061554,0.354054093361
1560244960310916185,-0.00952047584827,0.00750042726161,-0.00176283356268,0.244358867407,-9.82678508759,0.303193718195
1560244960314825535,-0.00704895332456,0.0102320184517,-0.000267003597086,0.285536676645,-9.90676212311,0.292864143848
1560244960318735361,-0.00704895332456,0.00799877949707,-1.75042805495e-05,0.265993326902,-9.90690517426,0.273373275995
1560244960322644234,-0.00532528627616,0.006990859285,-1.75042805495e-05,0.28617605567,-9.94669151306,0.293127983809
1560244960326555490,-0.00162607429657,0.00970229880302,-1.75042805495e-05,0.226262062788,-9.88706684113,0.25419524312
1560244960330464363,-6.76363852108e-05,0.0102746169933,-1.75042805495e-05,0.205749124289,-9.86692237854,0.274443656206
1560244960334375381,-6.76363852108e-05,0.00873618852347,-1.75042805495e-05,0.16552516818,-9.86664485931,0.305236518383
1560244960338286400,-6.76363852108e-05,0.00524553004652,-1.75042805495e-05,0.203809946775,-9.82634544373,0.35392215848
1560244960342195511,-6.76363852108e-05,0.00666861931502,-1.75042805495e-05,0.202845618129,-9.78625488281,0.37359392643
1560244960346105576,0.00234233460125,0.00940083025691,-1.75042805495e-05,0.222069248557,-9.76614570618,0.392952859402
1560244960350014448,0.00507357266274,0.0121320683184,-1.75042805495e-05,0.21946965158,-9.76485347748,0.552437603474
1560244960353923559,0.00427652385763,0.0122268470004,-1.75042805495e-05,0.157915145159,-9.76383018494,0.673385381699
1560244960357832432,0.00167769286782,0.0104815177619,-1.75042805495e-05,0.139021724463,-9.76429653168,0.614023327827
1560244960361742496,0.00167769286782,0.0104815177619,-1.75042805495e-05,0.13870729506,-9.72453022003,0.59382390976
1560244960365652561,0.00167769286782,0.0104815177619,-1.75042805495e-05,0.155493795872,-9.70320892334,0.762699723244
1560244960369562387,0.000329673379032,0.0104815177619,-0.00136552379181,0.15516358614,-9.72285079956,0.802702903748
1560244960373472452,-6.76363852108e-05,0.00989185686571,-0.00117317265169,0.174717396498,-9.68310165405,0.78205871582
1560244960377382517,-6.76363852108e-05,0.00558309913402,-1.75042805495e-05,0.19508099556,-9.65365600586,0.721609294415
1560244960381292582,-0.000885999226422,0.00350020104088,-1.75042805495e-05,0.174397706985,-9.66313648224,0.781926751137
1560244960385202646,-0.00349832980608,0.00530549508805,-1.75042805495e-05,0.155493795872,-9.70320892334,0.762699723244
1560244960389111519,-0.00181296560913,0.00803672412358,-1.75042805495e-05,0.136437907815,-9.70359516144,0.713305473328
1560244960393021584,-0.00384612972634,0.0090240234022,-1.75042805495e-05,0.178774043918,-9.70492458344,0.552931308746
1560244960396931648,-0.00530362408608,0.00920676420287,-1.75042805495e-05,0.178134635091,-9.66499519348,0.552667498589
1560244960400841475,-0.00530362408608,0.00873618852347,-1.75042805495e-05,0.17908847332,-9.74469184875,0.573130726814
1560244960404751539,-0.00530362408608,0.0102394210957,-1.75042805495e-05,0.200246021152,-9.78496170044,0.533078670502
1560244960408661604,-0.00455883904886,0.00873618852347,-1.75042805495e-05,0.182966828346,-9.82584381104,0.414173692465
1560244960412571430,-0.00355829484761,0.00873618852347,-1.75042805495e-05,0.202840358019,-9.80605697632,0.393661439419
1560244960416480780,-0.00530362408608,0.0124273276819,-1.75042805495e-05,0.183281242847,-9.86561203003,0.434373140335
1560244960420390606,-0.00530362408608,0.0137580508646,-1.75042805495e-05,0.164382606745,-9.88588142395,0.395078599453
1560244960424299479,-0.00530362408608,0.0110266519261,-0.00121769938488,0.164566084743,-9.80674934387,0.304840743542
1560244960428210735,-0.00486083422925,0.0104815177619,-0.00176283356268,0.183307558298,-9.76659584045,0.334035545588
1560244960432120562,-0.00355829484761,0.0104815177619,-0.00176283356268,0.183941677213,-9.82632827759,0.354366898537
1560244960436030626,-0.00355829484761,0.0104815177619,-0.00109161723161,0.183936417103,-9.84613227844,0.374434411526
1560244960439940691,-0.00355829484761,0.00882333840627,-1.75042805495e-05,0.204129651189,-9.84631061554,0.354054093361
1560244960443849564,-0.00181296560913,0.006990859285,-1.75042805495e-05,0.183297038078,-9.80620193481,0.374170571566
1560244960447759867,-6.76363852108e-05,0.006990859285,-1.75042805495e-05,0.162768363953,-9.84546756744,0.454621553421
1560244960451669693,-6.76363852108e-05,0.006990859285,-1.75042805495e-05,0.161143615842,-9.8446598053,0.554299473763
1560244960455579519,0.00167769286782,0.00524553004652,-1.75042805495e-05,0.181347340345,-9.80523204803,0.49378412962
1560244960459489822,0.00167769286782,0.00524553004652,-1.75042805495e-05,0.180388271809,-9.74533843994,0.493388354778
1560244960463398695,-6.76363852108e-05,0.006990859285,-1.75042805495e-05,0.158580824733,-9.70474433899,0.573311567307
1560244960467308521,-6.76363852108e-05,0.00857505283318,-1.75042805495e-05,0.156966581941,-9.66433048248,0.632854580879
1560244960471218824,-0.000893309775532,0.00873618852347,-1.75042805495e-05,0.158586069942,-9.68494224548,0.553244113922
1560244960475127697,-0.00355829484761,0.00517937629606,-1.75042805495e-05,0.176999956369,-9.65452766418,0.612408280373
1560244960479037762,-0.0025046649047,0.00350020104088,-1.75042805495e-05,0.175859987736,-9.66386318207,0.69221663475
1560244960482946873,-0.00210726848505,0.00553983292244,-1.75042805495e-05,0.156783074141,-9.74346160889,0.72309243679
1560244960486856699,-0.00355829484761,0.00570994040545,-0.00129842319214,0.137721925974,-9.76364994049,0.693765640259
1560244960490766764,-0.00530362408608,0.00524553004652,-0.00176283356268,0.138377085328,-9.74417114258,0.633826971054
1560244960494676828,-0.00530362408608,0.00524553004652,-0.00176283356268,0.177788674831,-9.74404525757,0.652873158455
1560244960498585701,-0.00530362408608,0.00524553004652,-0.00176283356268,0.177138775587,-9.74372196198,0.692744255066
1560244960502495766,-0.00530362408608,0.00524553004652,-2.51692881168e-05,0.196367666125,-9.70380973816,0.692035675049
1560244960506406784,-0.00530362408608,0.00252046346437,-1.75042805495e-05,0.197843074799,-9.65503025055,0.552156746387
1560244960510316849,-0.00727063788832,0.00197655626454,-1.75042805495e-05,0.197672709823,-9.68465423584,0.592225790024
1560244960514225721,-0.0100018822146,0.00350020104088,-1.75042805495e-05,0.177474245429,-9.70427799225,0.632673680782
1560244960518136740,-0.01228494104,0.00260095480208,-0.00221245663967,0.199276432395,-9.76467323303,0.572817921638
1560244960522046804,-0.01228494104,9.54246752372e-06,-0.00350816268474,0.181027650833,-9.7852678299,0.493652194738
1560244960525955915,-0.0116071371846,-0.00173578679096,-0.00215255500221,0.162128970027,-9.80553722382,0.454357683659
1560244960529864788,-0.0105396118015,-0.00173578679096,-1.75042805495e-05,0.182636618614,-9.84548568726,0.454176813364
1560244960533774853,-0.0105396118015,9.54246752372e-06,-1.75042805495e-05,0.182972088456,-9.80603981018,0.394106149673
1560244960537684917,-0.00894142037171,9.54246752372e-06,0.00172782491427,0.184591576457,-9.82665157318,0.314495712519
1560244960541593790,-0.0116729597152,9.54246752372e-06,0.0005944770289,0.223038837314,-9.78643417358,0.353213578463
1560244960545503855,-0.0119097158872,9.54246752372e-06,-1.75042805495e-05,0.202840358019,-9.80605697632,0.393661439419
1560244960549412727,-0.0105396118015,9.54246752372e-06,-0.00137859102081,0.163748458028,-9.82614898682,0.374747216702
1560244960553321838,-0.00879428256303,9.54246752372e-06,-0.00116068011406,0.18523620069,-9.84677886963,0.29469203949
1560244960557231903,-0.00720508967157,-0.00157965044216,-1.75042805495e-05,0.224967494607,-9.86661720276,0.313870102167
1560244960561141729,-0.00621861433509,-0.00173578679096,-1.75042805495e-05,0.2640594244,-9.84652614594,0.332784295082
1560244960565051079,-0.00530362408608,9.54246752372e-06,-1.75042805495e-05,0.225281953812,-9.90638542175,0.334069520235
1560244960568960905,-0.00530362408608,9.54246752372e-06,-1.75042805495e-05,0.244191139936,-9.84650802612,0.333229035139
1560244960572868824,-0.00355829484761,0.00409813282442,-1.75042805495e-05,0.226089060307,-9.92659187317,0.304298073053
1560244960576779127,-0.00227237681075,0.00570494124814,-1.75042805495e-05,0.184114664793,-9.78680324554,0.304264068604
1560244960580688953,-0.00234019678483,0.00350020104088,-0.00107196660996,0.165043011308,-9.84659862518,0.315072387457
1560244960584598780,-0.00507211266,0.00350020104088,-0.00350816268474,0.184921771288,-9.80700969696,0.274492621422
1560244960588507175,-0.00280396794734,0.00100054479436,-0.00275383583478,0.184754043818,-9.8267326355,0.304527938366
1560244960592417002,-7.18019221468e-05,9.54246752372e-06,-2.16698176245e-05,0.224338620901,-9.78708076477,0.273471206427
1560244960596327782,0.000915704217258,9.54246752372e-06,-1.75042805495e-05,0.224490582943,-9.82676792145,0.303638458252
1560244960600235224,0.00167769286782,0.00372338473214,-1.75042805495e-05,0.20462231338,-9.82674980164,0.304083168507
1560244960604146004,0.000467144428704,0.00524553004652,-0.00122805273985,0.164723306894,-9.82663345337,0.314940452576
1560244960608057022,-6.76363852108e-05,0.00615167497262,-1.75042805495e-05,0.183616727591,-9.82616710663,0.374302506447
1560244960611966133,-6.76363852108e-05,0.0101754394964,-1.75042805495e-05,0.182332709432,-9.76611042023,0.393842339516
1560244960615875006,0.00167769286782,0.00912178025951,-1.75042805495e-05,0.182002484798,-9.78575229645,0.433845430613
1560244960619783878,1.1181725391e-05,0.00532434815647,-1.75042805495e-05,0.160844951868,-9.74548244476,0.473897486925
1560244960623694181,-6.76363852108e-05,0.00350020104088,-0.00176283356268,0.2194801718,-9.72524833679,0.512302517891
1560244960627603054,-6.76363852108e-05,0.00175487168599,-1.75042805495e-05,0.199286952615,-9.72506809235,0.53268289566
1560244960631513119,-6.76363852108e-05,0.00175487168599,-1.75042805495e-05,0.178454324603,-9.6849603653,0.552799344063
1560244960635422230,-0.00181296560913,0.00387679488725,0.00135123102707,0.158266380429,-9.66497707367,0.553112149239
1560244960639332056,-0.00181296560913,0.00524553004652,-1.75042805495e-05,0.17909373343,-9.72488975525,0.55306327343
1560244960643242121,-0.00067296166516,0.00410552624512,-1.75042805495e-05,0.177479475737,-9.68447494507,0.612606167793
1560244960647151232,-0.00340438323865,0.0036541126293,-0.00160892194988,0.17908847332,-9.74469184875,0.573130726814
1560244960651061058,-0.00530362408608,0.00175487168599,-1.75042805495e-05,0.17908847332,-9.74469184875,0.573130726814
1560244960654971123,-0.00348364227463,0.00182952426394,-1.75042805495e-05,0.221083879471,-9.80526733398,0.492894649506
1560244960658880234,-0.00287392074397,0.00456115603418,-1.75042805495e-05,0.220444500446,-9.76533794403,0.492630809546
1560244960662789106,-0.00386009211274,0.00554732731165,-0.00176283356268,0.160839691758,-9.76528453827,0.493964999914
1560244960666698217,-0.0065916644796,0.006990859285,-0.000474793136944,0.160210818052,-9.68575000763,0.453566133976
1560244960729252100,-0.00181296560913,0.00175487168599,-1.75042805495e-05,0.200911700726,-9.72587585449,0.433004915714
1560244960737072229,-6.76363852108e-05,0.00167957068485,-1.75042805495e-05,0.181682795286,-9.76578712463,0.433713525534
1560244960740982533,-0.00181296560913,0.00175487168599,-1.75042805495e-05,0.180702701211,-9.78510665894,0.513587832451
1560244960744891405,-0.001890450856,0.00175487168599,-1.75042805495e-05,0.180383011699,-9.76514148712,0.513455867767
1560244960756620407,-0.00355829484761,0.00372676992417,-1.75042805495e-05,0.199936851859,-9.72539138794,0.492811709642
1560244960760530233,-0.00469771906094,0.00122135255128,0.00112191990428,0.23934841156,-9.72526550293,0.511857867241
1560244960764439344,-0.00530362408608,9.54246752372e-06,0.000207785565869,0.259871870279,-9.70580291748,0.451474368572
1560244960768349409,-0.00530362408608,0.00251676660902,-1.75042805495e-05,0.220449760556,-9.74553585052,0.472563266754
1560244960772258282,-0.00356096019238,0.00350020104088,-1.75042805495e-05,0.180393531919,-9.72553634644,0.473320841789
1560244960776167393,-0.00530362408608,0.0025114861906,-1.75042805495e-05,0.16116464138,-9.7654466629,0.474029421806
1560244960780076504,-0.00530362408608,0.00372980146565,-0.000247104741695,0.182007759809,-9.76594924927,0.413777917624
1560244960783985376,-0.00530362408608,0.00646162781286,-0.00176283356268,0.201226130128,-9.76564311981,0.453204363585
1560244960787895441,-0.00484621248199,0.00478811850345,-0.00130542194715,0.221419334412,-9.76582241058,0.43282404542
1560244960791804552,-0.00500196434697,0.00205653144523,-1.75042805495e-05,0.182007759809,-9.76594924927,0.413777917624
1560244960795713425,-0.00530362408608,0.00175487168599,-1.75042805495e-05,0.162784129381,-9.78605747223,0.394418984652
1560244960799623489,-0.00530362408608,0.00342622227914,-1.75042805495e-05,0.143885448575,-9.80632686615,0.355124443769
1560244960803531408,-0.00530362408608,0.00524553004652,-1.75042805495e-05,0.16408392787,-9.78670406342,0.314676612616
1560244960807440519,-0.00530362408608,0.00683812833261,-1.75042805495e-05,0.183952197433,-9.78672218323,0.314231872559
1560244960811350584,-0.00530362408608,0.00524553004652,-1.75042805495e-05,0.204134896398,-9.82650756836,0.333986580372
1560244960815258503,-0.00355829484761,0.00350020104088,-1.75042805495e-05,0.203495517373,-9.78657817841,0.333722710609
1560244960819168568,-0.00355829484761,0.00350020104088,-1.75042805495e-05,0.18363250792,-9.76675701141,0.31409996748
1560244960823077440,-0.00355829484761,0.00175487168599,-1.75042805495e-05,0.203820466995,-9.78673934937,0.313787132502
1560244960826985598,-0.00355829484761,0.00334823091962,-1.75042805495e-05,0.183794975281,-9.76683807373,0.304132163525
1560244960830895424,-0.00439296711379,0.00350020104088,-0.00176283356268,0.163758978248,-9.78654289246,0.334612190723
1560244960834804535,-0.00355829484761,0.00350020104088,-0.00350816268474,0.163753718138,-9.80634498596,0.354679703712
1560244960838713646,-0.00249673867653,0.00350020104088,-0.00244660658447,0.183291777968,-9.82600498199,0.394238084555
1560244960842622519,-6.76363852108e-05,0.00524553004652,-0.00146022488825,0.182977348566,-9.78623771667,0.374038636684
1560244960846531391,-6.76363852108e-05,0.00395689486324,-1.75042805495e-05,0.221419334412,-9.76582241058,0.43282404542
1560244960850439548,-0.00234194388231,0.00402917924349,-0.00123385527627,0.201870769262,-9.78576946259,0.433400690556
1560244960854348660,-0.00355829484761,0.00676088225292,-1.75042805495e-05,0.1611751616,-9.72584056854,0.433894395828
1560244960858258486,-0.00431519267936,0.00873618852347,-0.00176283356268,0.161819800735,-9.74596691132,0.414090722799
1560244960862167597,-0.00530362408608,0.00699302501803,-0.00176283356268,0.16116990149,-9.74564361572,0.453961908817
1560244960866077662,-0.00431898060738,0.00426088669918,-0.000778190059353,0.200581490993,-9.74551773071,0.473008036613
1560244960869986534,-0.00181296560913,0.00152902357525,-1.75042805495e-05,0.260191559792,-9.72576808929,0.451606303453
1560244960873896837,-0.00181296560913,0.00122230779038,-1.75042805495e-05,0.240642994642,-9.74571418762,0.452182978392
1560244960877805710,-0.00355829484761,0.00175487168599,-0.00176283356268,0.160844951868,-9.74548244476,0.473897486925
1560244960881715536,-0.00211774033661,0.000314317191509,-0.000322279015652,0.141301631927,-9.74562549591,0.454406648874
1560244960885624647,-0.0024941671924,0.00069074404298,-1.75042805495e-05,0.161819800735,-9.74596691132,0.414090722799
1560244960889534712,-0.00522617647559,0.00175487168599,-1.75042805495e-05,0.20155633986,-9.74600219727,0.413201242685
1560244960893443584,-0.00621251401704,0.00524553004652,-1.75042805495e-05,0.241292893887,-9.74603748322,0.412311792374
1560244960897352695,-0.00879428256303,0.00494561761305,-1.75042805495e-05,0.201876029372,-9.76596641541,0.413333177567
1560244960901261806,-0.00879428256303,0.00175487168599,-1.75042805495e-05,0.182977348566,-9.78623771667,0.374038636684
1560244960905170679,-0.00704895332456,0.00213198830396,-1.75042805495e-05,0.162469699979,-9.74629020691,0.374219536781
1560244960909079552,-0.00568584681102,0.00213709443642,-1.75042805495e-05,0.163439288735,-9.76657772064,0.334480285645
1560244960912988663,-0.00530362408608,0.00115061001671,-1.75042805495e-05,0.163439288735,-9.76657772064,0.334480285645
1560244960916896820,-0.00530362408608,9.54246752372e-06,-1.75042805495e-05,0.203982934356,-9.78682041168,0.303819328547
1560244960920805693,-0.00530362408608,9.54246752372e-06,-1.75042805495e-05,0.203825712204,-9.76693630219,0.293719619513
1560244960924715757,-0.00704895332456,8.13547628712e-05,-1.75042805495e-05,0.164408862591,-9.78686618805,0.294741004705
1560244960928623676,-0.00704895332456,0.00281219746087,-1.75042805495e-05,0.184596821666,-9.806848526,0.29442819953
1560244960932533741,-0.00500451546736,0.00494642146771,-0.00146372493648,0.18507373333,-9.84669780731,0.304659843445
1560244960936442852,-0.00227299033207,0.000929591938806,-1.75042805495e-05,0.16569814086,-9.8271188736,0.25513368845
1560244960940351725,-0.00181296560913,-0.00173578679096,-1.75042805495e-05,0.145504921675,-9.82693862915,0.275514006615
1560244960944260836,-0.00332559583347,-0.00173578679096,-1.75042805495e-05,0.185561150312,-9.84694004059,0.274756461382
1560244960948168755,-0.00530362408608,-0.00173578679096,-1.75042805495e-05,0.225297689438,-9.84697532654,0.273866981268
1560244960952079773,-0.00530362408608,4.54360261395e-06,-1.75042805495e-05,0.224647805095,-9.84665203094,0.313738167286
1560244960955988884,-0.00181296560913,0.00175487168599,-1.75042805495e-05,0.243876665831,-9.80673885345,0.313029587269
1560244960959897995,-6.76363852108e-05,0.00153249949392,-1.75042805495e-05,0.223049357533,-9.74682807922,0.313078552485
1560244960963806868,-6.76363852108e-05,9.54246752372e-06,-1.75042805495e-05,0.182652398944,-9.78607559204,0.393974244595
1560244960967715740,-6.76363852108e-05,9.54246752372e-06,-1.75042805495e-05,0.162464439869,-9.76609230042,0.39428704977
1560244960971624851,-6.76363852108e-05,9.54246752372e-06,-1.75042805495e-05,0.180718481541,-9.7256975174,0.453385263681
1560244960975533009,-0.000743339593825,9.54246752372e-06,-0.000693207511698,0.201231390238,-9.74584007263,0.433136850595
1560244960979441881,-0.00181296560913,0.00167188737434,-0.00176283356268,0.260186284781,-9.74557113647,0.471673816442
1560244960983350754,-6.76363852108e-05,0.00350020104088,-1.75042805495e-05,0.199611902237,-9.72523021698,0.51274728775
1560244960987260103,-0.000211428001196,-0.000134249151309,-1.75042805495e-05,0.180383011699,-9.76514148712,0.513455867767
1560244960991168976,-0.00181296560913,-0.00173578679096,0.00111245357486,0.159560918808,-9.68542671204,0.493437319994
1560244960995077848,-0.00355829484761,-0.00136503597134,-1.75042805495e-05,0.160530522466,-9.70571422577,0.453698068857
1560244960998986721,-0.00355829484761,9.54246752372e-06,-1.75042805495e-05,0.201231390238,-9.74584007263,0.433136850595
1560244961002897024,-0.00355829484761,0.00175487168599,-1.75042805495e-05,0.220130071044,-9.72557163239,0.472431361675
1560244961006805897,-0.00355829484761,0.000169996033912,-1.75042805495e-05,0.240648210049,-9.72591114044,0.4321154356
1560244961010714769,-0.00355829484761,-0.00173578679096,-1.75042805495e-05,0.182013019919,-9.74614620209,0.393710404634
1560244961014625072,-0.00355829484761,-0.00166799917353,-1.75042805495e-05,0.182337969542,-9.74630832672,0.373774796724
1560244961018533945,-0.00355829484761,9.54246752372e-06,-1.75042805495e-05,0.163434028625,-9.78638076782,0.354547798634
1560244961022442818,-0.00355829484761,9.54246752372e-06,-1.75042805495e-05,0.163434028625,-9.78638076782,0.354547798634
1560244961026353121,-0.00483943581358,9.54246752372e-06,-1.75042805495e-05,0.183307558298,-9.76659584045,0.334035545588
1560244961030261040,-0.00704895332456,9.54246752372e-06,-1.75042805495e-05,0.222719147801,-9.76646900177,0.353081643581
1560244961034169912,-0.00704895332456,9.54246752372e-06,-0.00152513650298,0.243881970644,-9.78693675995,0.29296207428
1560244961038081169,-0.00629895653659,0.000759539246894,-1.75042805495e-05,0.184271886945,-9.80668640137,0.314363777637
1560244961041990042,-0.00530362408608,1.85411680854e-05,-1.75042805495e-05,0.144215658307,-9.7866859436,0.315121352673
1560244961045901060,-0.00530362408608,9.54246752372e-06,-1.75042805495e-05,0.144215658307,-9.7866859436,0.315121352673
1560244961049810171,-0.00508408351463,9.54246752372e-06,-1.75042805495e-05,0.143895968795,-9.76672077179,0.314989417791
1560244961053719044,-0.00355829484761,-0.00119605781647,-1.75042805495e-05,0.184282392263,-9.76708030701,0.274228751659
1560244961057628155,-0.00400516177591,-0.00128891985753,-1.75042805495e-05,0.184434354305,-9.80676746368,0.304396003485
1560244961061537981,-0.00530362408608,9.54246752372e-06,-1.75042805495e-05,0.204470351338,-9.78706264496,0.273915946484
1560244961065448999,-0.00220709372762,9.54246752372e-06,-1.75042805495e-05,0.1836219877,-9.80636310577,0.354234993458
1560244961069358110,-0.00172935444257,-0.00165217562274,-1.75042805495e-05,0.184271886945,-9.80668640137,0.314363777637
1560244961073266029,-0.00181296560913,9.54246752372e-06,-1.75042805495e-05,0.164566084743,-9.80674934387,0.304840743542
1560244961077176094,-0.00195645133813,0.00175487168599,-1.75042805495e-05,0.164403617382,-9.80666828156,0.314808517694
1560244961081085205,-0.00355829484761,0.00175487168599,-1.75042805495e-05,0.18363250792,-9.76675701141,0.31409996748
1560244961084994078,-0.00318740185802,9.54246752372e-06,-1.75042805495e-05,0.223683476448,-9.80656051636,0.333409905434
1560244961088904142,-0.00181296560913,9.54246752372e-06,-1.75042805495e-05,0.222719147801,-9.76646900177,0.353081643581
1560244961092813253,-0.00355829484761,9.54246752372e-06,-1.75042805495e-05,0.222713887691,-9.78627300262,0.37314915657
1560244961096721172,-0.00355829484761,0.00159375141794,-1.75042805495e-05,0.182337969542,-9.74630832672,0.373774796724
1560244961100630999,-0.000987537229642,0.000929443309079,-1.75042805495e-05,0.163114339113,-9.76641559601,0.354415863752
1560244961104540348,-6.76363852108e-05,-5.75793742483e-05,-1.75042805495e-05,0.163434028625,-9.78638076782,0.354547798634
1560244961108449221,-6.76363852108e-05,-0.00278874989815,-1.75042805495e-05,0.181693330407,-9.72618198395,0.393578469753
1560244961112359047,-0.00210707558349,-0.00318700595828,-1.75042805495e-05,0.240967929363,-9.74587535858,0.432247370481
1560244961116268396,-0.00227720962621,-0.00173578679096,-1.75042805495e-05,0.281354337931,-9.7462348938,0.39148670435
1560244961120177269,-0.00181296560913,9.54246752372e-06,0.00120625916147,0.28069922328,-9.76571464539,0.451425433159
1560244961124086142,-0.00181296560913,9.54246752372e-06,-1.75042805495e-05,0.200592011213,-9.70591068268,0.432873010635
1560244961127995253,-0.00106430072336,-0.00248445163304,-1.75042805495e-05,0.16116990149,-9.74564361572,0.453961908817
1560244961131904364,-0.00180263424297,-0.00174611815652,-1.75042805495e-05,0.181682795286,-9.76578712463,0.433713525534
1560244961135814190,-0.00530362408608,0.000985980859542,-1.75042805495e-05,0.160855472088,-9.70587539673,0.433762490749
1560244961139723301,-0.00530362408608,0.00350020104088,-1.75042805495e-05,0.22110491991,-9.72605609894,0.412624597549
1560244961143631458,-0.00410063848879,0.00229721536334,-1.75042805495e-05,0.221424609423,-9.74602031708,0.412756502628
1560244961147540331,-0.00574765966097,0.00175487168599,-0.000461539866545,0.222069248557,-9.76614570618,0.392952859402
1560244961151449203,-0.00847914643052,0.00175487168599,-0.00176283356268,0.182337969542,-9.74630832672,0.373774796724
1560244961155358315,-0.00637808268141,0.00175487168599,-0.00109196290275,0.143890708685,-9.78652477264,0.33505693078
1560244961159267426,-0.00530362408608,0.00341239345432,-1.75042805495e-05,0.143571019173,-9.76655960083,0.334925025702
1560244961163175344,-0.00445570693224,0.00524553004652,-1.75042805495e-05,0.144540593028,-9.78684806824,0.295185744762
1560244961167085409,-0.00544243076523,0.00322258767492,-0.00015631096317,0.183957442641,-9.76691913605,0.29416435957
1560244961170993328,-0.00704895332456,9.54246752372e-06,-0.00176283356268,0.204470351338,-9.78706264496,0.273915946484
1560244961174902439,-0.00704895332456,-0.00173578679096,-0.00176283356268,0.18525198102,-9.78736877441,0.234489500523
1560244961178811312,-0.00569739716245,-0.000384230613354,-0.00311438963464,0.18524672091,-9.80717182159,0.254557013512
1560244961182720423,-0.00530362408608,9.54246752372e-06,-0.00176283356268,0.145504921675,-9.82693862915,0.275514006615
1560244961186629295,-0.00372508005197,9.54246752372e-06,-0.000184289489082,0.16570340097,-9.80731487274,0.235066145658
